timeSinceStartup,missionElapsedTime,guidanceFrequency,flightMode,pyroState,chuteState,dataLoggingState,telemSendState,telemConnState,battV,servoV,rollMotorV,boardTemp,gyroX,gyroY,gyroZ,alt,oriX,oriY,oriZ,tvcX,tvcY,pyro1Cont,pyro2Cont,pyro3Cont,pyro4Cont,pyro5Cont,pyro1Fire,pyro2Fire,pyro3Fire,pyro4Fire,pyro5Fire
4164,0,nan,1,1,1,0,3,1,11.53,8.34,5.99,0.00,0.00,0.00,0.00,nan,0.00,0.00,0.00,0.00,0.00,0,1,0,0,1,0,0,0,0,0
39547,1,516116.25,3,0,1,0,3,0,11.52,8.34,5.99,0.00,0.00,0.00,0.00,nan,0.57,-1.72,0.70,-973.58,1386.19,0,1,0,0,1,0,0,0,0,0
39564,18,16.67,3,0,1,0,3,0,11.52,8.34,5.99,0.00,0.00,0.00,0.00,nan,-0.00,-0.00,0.00,680.91,-1685.35,0,1,0,0,1,0,0,0,0,0
39639,93,7.41,3,0,1,0,3,0,11.52,8.34,5.99,0.00,0.00,0.00,0.00,nan,-0.00,0.00,0.01,-0.82,-0.32,0,1,0,0,1,0,0,0,0,0
39644,98,7.14,3,0,1,0,3,0,11.52,8.34,5.99,0.00,0.00,0.00,0.00,nan,-0.00,-0.00,0.01,-0.51,0.68,0,1,0,0,1,0,0,0,0,0
39661,115,6.37,3,0,1,0,3,0,11.52,8.34,5.99,0.00,0.00,0.00,0.00,nan,-0.00,-0.00,0.01,-0.38,0.04,0,1,0,0,1,0,0,0,0,0
39667,121,6.13,3,0,1,0,3,0,11.52,8.34,5.99,0.00,0.00,0.00,0.00,nan,-0.00,-0.00,0.00,0.58,0.16,0,1,0,0,1,0,0,0,0,0
39684,138,5.56,3,0,1,0,3,0,11.52,8.34,5.99,0.00,0.00,0.00,0.00,nan,-0.00,-0.00,0.01,-1.88,-0.44,0,1,0,0,1,0,0,0,0,0
39689,143,5.41,3,0,1,0,3,0,11.52,8.34,5.99,0.00,0.00,0.00,0.00,nan,-0.00,0.00,0.01,-1.96,-0.63,0,1,0,0,1,0,0,0,0,0
39721,175,inf,3,0,1,0,3,0,11.00,8.35,5.94,0.00,0.00,0.00,0.00,nan,-0.00,0.00,0.01,-0.25,0.10,1,1,1,1,1,0,1,0,0,0
39796,250,13.33,3,0,1,0,3,0,11.00,8.35,5.94,0.00,0.00,0.00,0.00,nan,-0.21,-0.03,-0.20,22.38,2.85,1,1,1,1,1,0,1,0,0,0
39801,255,12.50,3,0,1,0,3,0,11.00,8.35,5.94,0.00,0.00,0.00,0.00,nan,-0.23,-0.04,-0.20,10.17,5.95,1,1,1,1,1,0,1,0,0,0
39818,272,10.31,3,0,1,0,3,0,11.00,8.35,5.94,0.00,0.00,0.00,0.00,nan,-0.24,-0.04,-0.20,17.76,1.37,1,1,1,1,1,0,1,0,0,0
39823,277,9.80,3,0,1,0,3,0,11.00,8.35,5.94,0.00,0.00,0.00,0.00,nan,-0.27,-0.04,-0.15,-1.62,3.97,1,1,1,1,1,0,1,0,0,0
39841,295,8.33,3,0,1,0,3,0,11.00,8.35,5.94,0.00,0.00,0.00,0.00,nan,-0.29,-0.05,-0.16,17.91,4.03,1,1,1,1,1,0,1,0,0,0
39846,300,8.00,3,0,1,0,3,0,11.00,8.35,5.94,0.00,0.00,0.00,0.00,nan,-0.35,-0.06,-0.12,-2.65,7.49,1,1,1,1,1,0,1,0,0,0
39863,317,7.04,3,0,1,0,3,0,11.00,8.35,5.94,0.00,0.00,0.00,0.00,nan,-0.35,-0.06,-0.12,6.72,7.19,1,1,1,1,1,0,1,0,0,0
39955,409,inf,3,0,1,0,3,0,11.51,8.34,5.99,0.00,0.00,0.00,0.00,nan,-0.67,-0.08,0.26,-33.95,6.60,0,0,0,0,1,0,1,0,0,0
39972,426,58.82,3,0,1,0,3,0,11.51,8.34,5.99,0.00,0.00,0.00,0.00,nan,-0.80,-0.05,0.37,-35.38,-0.93,0,0,0,0,1,0,1,0,0,0
39977,431,45.45,3,0,1,0,3,0,11.51,8.34,5.99,0.00,0.00,0.00,0.00,nan,-0.89,-0.02,0.43,-42.86,-4.83,0,0,0,0,1,0,1,0,0,0
39994,448,25.64,3,0,1,0,3,0,11.51,8.34,5.99,0.00,0.00,0.00,0.00,nan,-0.90,-0.02,0.45,-46.02,-4.94,0,0,0,0,1,0,1,0,0,0
40000,454,22.22,3,0,1,0,3,0,11.51,8.34,5.99,0.00,0.00,0.00,0.00,nan,-0.98,0.03,0.52,-46.24,-11.15,0,0,0,0,1,0,1,0,0,0
40075,529,8.33,3,0,1,0,3,0,11.51,8.34,5.99,0.00,0.00,0.00,0.00,nan,-1.08,0.31,0.69,-54.71,-36.61,0,0,0,0,1,0,1,0,0,0
40080,534,8.00,3,0,1,0,3,0,11.51,8.34,5.99,0.00,0.00,0.00,0.00,nan,-1.07,0.39,0.74,-59.25,-43.86,0,0,0,0,1,0,1,0,0,0
40097,551,7.04,3,0,1,0,3,0,11.51,8.34,5.99,0.00,0.00,0.00,0.00,nan,-1.07,0.42,0.75,-58.89,-48.45,0,0,0,0,1,0,1,0,0,0
40103,557,6.76,3,0,1,0,3,0,11.51,8.34,5.99,0.00,0.00,0.00,0.00,nan,-1.06,0.51,0.77,-54.54,-53.57,0,0,0,0,1,0,1,0,0,0
40120,574,6.06,3,0,1,0,3,0,11.51,8.34,5.99,0.00,0.00,0.00,0.00,nan,-1.05,0.53,0.78,-58.23,-54.81,0,0,0,0,1,0,1,0,0,0
40127,581,5.81,3,0,1,0,3,0,11.51,8.34,5.99,0.00,0.00,0.00,0.00,nan,-1.02,0.64,0.79,-54.91,-63.71,0,0,0,0,1,0,1,0,0,0
40144,598,5.29,3,0,1,0,3,0,11.51,8.34,5.99,0.00,0.00,0.00,0.00,nan,-1.01,0.67,0.80,-58.15,-66.35,0,0,0,0,1,0,1,0,0,0
40234,688,inf,3,0,1,0,3,0,11.51,8.34,5.99,0.00,0.00,0.00,0.00,nan,-0.67,1.23,0.77,-52.14,-108.35,0,0,0,0,1,0,1,0,0,0
40251,705,58.82,3,0,1,0,3,0,11.51,8.34,5.99,0.00,0.00,0.00,0.00,nan,-0.45,1.49,0.78,-57.50,-129.29,0,0,0,0,1,0,1,0,0,0
40256,710,45.45,3,0,1,0,3,0,11.51,8.34,5.99,0.00,0.00,0.00,0.00,nan,-0.32,1.63,0.81,-63.51,-139.62,0,0,0,0,1,0,1,0,0,0
40273,727,25.64,3,0,1,0,3,0,11.51,8.34,5.99,0.00,0.00,0.00,0.00,nan,-0.28,1.66,0.81,-63.07,-142.17,0,0,0,0,1,0,1,0,0,0
40279,733,22.22,3,0,1,0,3,0,11.51,8.34,5.99,0.00,0.00,0.00,0.00,nan,-0.17,1.80,0.83,-64.26,-152.77,0,0,0,0,1,0,1,0,0,0
40354,808,8.33,3,0,1,0,3,0,11.51,8.34,5.99,0.00,0.00,0.00,0.00,nan,0.36,2.20,0.95,-78.89,-173.16,0,0,0,0,1,0,1,0,0,0
40359,813,8.00,3,0,1,0,3,0,11.51,8.34,5.99,0.00,0.00,0.00,0.00,nan,0.49,2.29,1.00,-87.39,-176.81,0,0,0,0,1,0,1,0,0,0
40376,830,7.04,3,0,1,0,3,0,11.51,8.34,5.99,0.00,0.00,0.00,0.00,nan,0.52,2.31,1.02,-86.44,-179.25,0,0,0,0,1,0,1,0,0,0
40382,836,6.76,3,0,1,0,3,0,11.51,8.34,5.99,0.00,0.00,0.00,0.00,nan,0.64,2.38,1.06,-88.82,-180.81,0,0,0,0,1,0,1,0,0,0
40399,853,6.06,3,0,1,0,3,0,11.51,8.34,5.99,0.00,0.00,0.00,0.00,nan,0.68,2.40,1.07,-91.15,-182.81,0,0,0,0,1,0,1,0,0,0
40404,858,5.88,3,0,1,0,3,0,11.51,8.34,5.99,0.00,0.00,0.00,0.00,nan,0.78,2.46,1.10,-91.80,-183.74,0,0,0,0,1,0,1,0,0,0
40421,875,5.35,3,0,1,0,3,0,11.51,8.34,5.99,0.00,0.00,0.00,0.00,nan,0.81,2.47,1.11,-93.20,-182.08,0,0,0,0,1,0,1,0,0,0
40511,965,inf,3,0,1,0,3,0,11.51,8.34,5.99,0.00,0.00,0.00,0.00,nan,1.02,2.44,1.34,-114.17,-178.21,0,0,0,0,1,0,1,0,0,0
40528,982,58.82,3,0,1,0,3,0,11.51,8.34,5.99,0.00,0.00,0.00,0.00,nan,1.12,2.40,1.48,-130.55,-175.41,0,0,0,0,1,0,1,0,0,0
40534,988,43.48,3,0,1,0,3,0,11.51,8.34,5.99,0.00,0.00,0.00,0.00,nan,1.17,2.35,1.58,-144.87,-167.90,0,0,0,0,1,0,1,0,0,0
40551,1005,25.00,3,0,1,0,3,0,11.51,8.34,5.99,0.00,0.00,0.00,0.00,nan,1.17,2.33,1.59,-137.07,-168.70,0,0,0,0,1,0,1,0,0,0
40556,1010,22.22,3,0,1,0,3,0,11.51,8.34,5.99,0.00,0.00,0.00,0.00,nan,1.16,2.28,1.66,-142.43,-166.53,0,0,0,0,1,0,1,0,0,0
40631,1085,8.33,3,0,1,0,3,0,11.51,8.34,5.99,0.00,0.00,0.00,0.00,nan,0.99,1.96,1.98,-172.77,-146.47,0,0,0,0,1,0,1,0,0,0
40636,1090,8.00,3,0,1,0,3,0,11.51,8.34,5.99,0.00,0.00,0.00,0.00,nan,0.94,1.86,2.10,-189.65,-139.50,0,0,0,0,1,0,1,0,0,0
40653,1107,7.04,3,0,1,0,3,0,11.51,8.34,5.99,0.00,0.00,0.00,0.00,nan,0.94,1.83,2.13,-196.14,-138.59,0,0,0,0,1,0,1,0,0,0
40659,1113,6.76,3,0,1,0,3,0,11.51,8.34,5.99,0.00,0.00,0.00,0.00,nan,0.86,1.74,2.26,-205.98,-134.60,0,0,0,0,1,0,1,0,0,0
40676,1130,6.06,3,0,1,0,3,0,11.51,8.34,5.99,0.00,0.00,0.00,0.00,nan,0.84,1.71,2.30,-208.50,-133.55,0,0,0,0,1,0,1,0,0,0
40681,1135,5.88,3,0,1,0,3,0,11.51,8.34,5.99,0.00,0.00,0.00,0.00,nan,0.74,1.61,2.44,-221.04,-126.56,0,0,0,0,1,0,1,0,0,0
40699,1153,5.32,3,0,1,0,3,0,11.51,8.34,5.99,0.00,0.00,0.00,0.00,nan,0.72,1.58,2.48,-231.63,-126.27,0,0,0,0,1,0,1,0,0,0
40789,1243,inf,3,0,1,0,3,0,11.51,8.34,5.99,0.00,0.00,0.00,0.00,nan,0.12,1.09,3.21,-283.45,-101.65,0,0,0,0,1,0,1,0,0,0
40806,1260,58.82,3,0,1,0,3,0,11.51,8.34,5.99,0.00,0.00,0.00,0.00,nan,-0.14,0.98,3.57,-316.23,-109.76,0,0,0,0,1,0,1,0,0,0
40811,1265,45.45,3,0,1,0,3,0,11.51,8.34,5.99,0.00,0.00,0.00,0.00,nan,-0.31,0.95,3.72,-321.62,-116.24,0,0,0,0,1,0,1,0,0,0
40829,1283,25.00,3,0,1,0,3,0,11.51,8.34,5.99,0.00,0.00,0.00,0.00,nan,-0.34,0.94,3.77,-333.56,-117.45,0,0,0,0,1,0,1,0,0,0
40834,1288,22.22,3,0,1,0,3,0,11.51,8.34,5.99,0.00,0.00,0.00,0.00,nan,-0.50,0.93,3.96,-347.02,-119.41,0,0,0,0,1,0,1,0,0,0
40909,1363,8.33,3,0,1,0,3,0,11.51,8.34,5.99,0.00,0.00,0.00,0.00,nan,-1.12,1.02,4.72,-411.09,-137.76,0,0,0,0,1,0,1,0,0,0
40914,1368,8.00,3,0,1,0,3,0,11.51,8.34,5.99,0.00,0.00,0.00,0.00,nan,-1.31,1.10,4.88,-415.21,-157.41,0,0,0,0,1,0,1,0,0,0
40931,1385,7.04,3,0,1,0,3,0,11.51,8.34,5.99,0.00,0.00,0.00,0.00,nan,-1.36,1.12,4.92,-416.28,-163.69,0,0,0,0,1,0,1,0,0,0
40937,1391,6.76,3,0,1,0,3,0,11.51,8.34,5.99,0.00,0.00,0.00,0.00,nan,-1.54,1.24,5.08,-432.35,-176.52,0,0,0,0,1,0,1,0,0,0
40954,1408,6.06,3,0,1,0,3,0,11.51,8.34,5.99,0.00,0.00,0.00,0.00,nan,-1.58,1.28,5.12,-434.10,-183.67,0,0,0,0,1,0,1,0,0,0
40959,1413,5.88,3,0,1,0,3,0,11.51,8.34,5.99,0.00,0.00,0.00,0.00,nan,-1.83,1.41,5.21,-428.24,-192.31,0,0,0,0,1,0,1,0,0,0
40976,1430,5.35,3,0,1,0,3,0,11.51,8.34,5.99,0.00,0.00,0.00,0.00,nan,-1.89,1.45,5.23,-424.55,-196.45,0,0,0,0,1,0,1,0,0,0
41066,1520,inf,3,0,1,0,3,0,11.06,8.32,5.98,0.00,0.00,0.00,0.00,nan,-3.39,2.17,4.97,-399.26,-250.40,1,1,1,1,1,0,1,0,0,0
41083,1537,58.82,3,0,1,0,3,0,11.06,8.32,5.98,0.00,0.00,0.00,0.00,nan,-4.28,2.31,4.54,-341.85,-242.71,1,1,1,1,1,0,1,0,0,0
41089,1543,43.48,3,0,1,0,3,0,11.06,8.32,5.98,0.00,0.00,0.00,0.00,nan,-4.79,2.34,4.27,-318.29,-232.64,1,1,1,1,1,0,1,0,0,0
41106,1560,25.00,3,0,1,0,3,0,11.06,8.32,5.98,0.00,0.00,0.00,0.00,nan,-4.92,2.34,4.21,-315.54,-227.11,1,1,1,1,1,0,1,0,0,0
41111,1565,22.22,3,0,1,0,3,0,11.06,8.32,5.98,0.00,0.00,0.00,0.00,nan,-5.43,2.31,3.94,-304.52,-222.60,1,1,1,1,1,0,1,0,0,0
41186,1640,8.33,3,0,1,0,3,0,11.06,8.32,5.98,0.00,0.00,0.00,0.00,nan,-7.40,1.84,3.24,-296.81,-176.55,1,1,1,1,1,0,1,0,0,0
41191,1645,8.00,3,0,1,0,3,0,11.06,8.32,5.98,0.00,0.00,0.00,0.00,nan,-7.83,1.68,3.22,-338.57,-160.16,1,1,1,1,1,0,1,0,0,0
41209,1663,6.99,3,0,1,0,3,0,11.06,8.32,5.98,0.00,0.00,0.00,0.00,nan,-7.93,1.64,3.23,-357.71,-153.72,1,1,1,1,1,0,1,0,0,0
41214,1668,6.76,3,0,1,0,3,0,11.06,8.32,5.98,0.00,0.00,0.00,0.00,nan,-8.33,1.47,3.31,-373.93,-149.56,1,1,1,1,1,0,1,0,0,0
41231,1685,6.06,3,0,1,0,3,0,11.06,8.32,5.98,0.00,0.00,0.00,0.00,nan,-8.42,1.44,3.35,-388.68,-152.59,1,1,1,1,1,0,1,0,0,0
41237,1691,5.85,3,0,1,0,3,0,11.06,8.32,5.98,0.00,0.00,0.00,0.00,nan,-8.78,1.32,3.49,-404.70,-152.32,1,1,1,1,1,0,1,0,0,0
41254,1708,5.32,3,0,1,0,3,0,11.06,8.32,5.98,0.00,0.00,0.00,0.00,nan,-8.88,1.30,3.53,-409.96,-159.95,1,1,1,1,1,0,1,0,0,0
41344,1798,inf,3,0,1,0,3,0,11.51,8.33,5.97,0.00,0.00,0.00,0.00,nan,8.09,1.34,4.49,-496.97,-192.10,0,0,0,0,1,0,1,0,0,0
41361,1815,58.82,3,0,1,0,3,0,11.51,8.33,5.97,0.00,0.00,0.00,0.00,nan,7.55,1.58,4.81,-511.69,-236.80,0,0,0,0,1,0,1,0,0,0
41367,1821,43.48,3,0,1,0,3,0,11.51,8.33,5.97,0.00,0.00,0.00,0.00,nan,7.25,1.73,4.89,-501.75,-254.52,0,0,0,0,1,0,1,0,0,0
41384,1838,25.00,3,0,1,0,3,0,11.51,8.33,5.97,0.00,0.00,0.00,0.00,nan,7.18,1.77,4.91,-501.28,-257.94,0,0,0,0,1,0,1,0,0,0
41389,1843,22.22,3,0,1,0,3,0,11.51,8.33,5.97,0.00,0.00,0.00,0.00,nan,6.85,1.92,4.93,-494.61,-269.33,0,0,0,0,1,0,1,0,0,0
41464,1918,8.33,3,0,1,0,3,0,11.51,8.33,5.97,0.00,0.00,0.00,0.00,nan,5.25,2.42,4.50,-451.48,-298.75,0,0,0,0,1,0,1,0,0,0
41469,1923,8.00,3,0,1,0,3,0,11.51,8.33,5.97,0.00,0.00,0.00,0.00,nan,4.77,2.46,4.27,-413.76,-283.34,0,0,0,0,1,0,1,0,0,0
41487,1941,6.99,3,0,1,0,3,0,11.51,8.33,5.97,0.00,0.00,0.00,0.00,nan,4.65,2.47,4.21,-406.57,-277.78,0,0,0,0,1,0,1,0,0,0
41492,1946,6.76,3,0,1,0,3,0,11.51,8.33,5.97,0.00,0.00,0.00,0.00,nan,4.15,2.49,3.97,-397.58,-281.68,0,0,0,0,1,0,1,0,0,0
41509,1963,6.06,3,0,1,0,3,0,11.51,8.33,5.97,0.00,0.00,0.00,0.00,nan,4.04,2.48,3.91,-397.45,-266.26,0,0,0,0,1,0,1,0,0,0
41515,1969,5.85,3,0,1,0,3,0,11.51,8.33,5.97,0.00,0.00,0.00,0.00,nan,3.57,2.44,3.68,-386.66,-266.34,0,0,0,0,1,0,1,0,0,0
41532,1986,5.32,3,0,1,0,3,0,11.51,8.33,5.97,0.00,0.00,0.00,0.00,nan,3.46,2.43,3.62,-388.41,-257.50,0,0,0,0,1,0,1,0,0,0
41622,2076,inf,3,0,1,0,3,0,11.50,8.34,5.97,0.00,0.00,0.00,0.00,nan,2.21,1.83,3.21,-410.38,-217.25,0,0,0,0,1,0,1,0,0,0
41639,2093,58.82,3,0,1,0,3,0,11.50,8.34,5.97,0.00,0.00,0.00,0.00,nan,1.84,1.58,3.24,-444.78,-204.64,0,0,0,0,1,0,1,0,0,0
41645,2099,43.48,3,0,1,0,3,0,11.50,8.34,5.97,0.00,0.00,0.00,0.00,nan,1.69,1.44,3.32,-466.13,-194.47,0,0,0,0,1,0,1,0,0,0
41662,2116,25.00,3,0,1,0,3,0,11.50,8.34,5.97,0.00,0.00,0.00,0.00,nan,1.66,1.40,3.34,-473.84,-194.37,0,0,0,0,1,0,1,0,0,0
41667,2121,22.22,3,0,1,0,3,0,11.50,8.34,5.97,0.00,0.00,0.00,0.00,nan,1.53,1.27,3.43,-482.17,-190.98,0,0,0,0,1,0,1,0,0,0
41742,2196,8.33,3,0,1,0,3,0,11.50,8.34,5.97,0.00,0.00,0.00,0.00,nan,0.91,0.84,3.92,-531.61,-172.88,0,0,0,0,1,0,1,0,0,0
41747,2201,8.00,3,0,1,0,3,0,11.50,8.34,5.97,0.00,0.00,0.00,0.00,nan,0.75,0.76,4.08,-554.83,-177.56,0,0,0,0,1,0,1,0,0,0
41764,2218,7.04,3,0,1,0,3,0,11.50,8.34,5.97,0.00,0.00,0.00,0.00,nan,0.71,0.75,4.12,-557.22,-179.25,0,0,0,0,1,0,1,0,0,0
41769,2223,6.80,3,0,1,0,3,0,11.50,8.34,5.97,0.00,0.00,0.00,0.00,nan,0.54,0.69,4.31,-579.33,-179.45,0,0,0,0,1,0,1,0,0,0
41787,2241,6.06,3,0,1,0,3,0,11.50,8.34,5.97,0.00,0.00,0.00,0.00,nan,0.50,0.68,4.36,-579.04,-181.93,0,0,0,0,1,0,1,0,0,0
41792,2246,5.88,3,0,1,0,3,0,11.50,8.34,5.97,0.00,0.00,0.00,0.00,nan,0.33,0.64,4.55,-598.12,-183.02,0,0,0,0,1,0,1,0,0,0
41809,2263,5.35,3,0,1,0,3,0,11.50,8.34,5.97,0.00,0.00,0.00,0.00,nan,0.29,0.64,4.60,-600.38,-191.24,0,0,0,0,1,0,1,0,0,0
41899,2353,inf,3,0,1,0,3,0,11.35,8.34,5.99,0.00,0.00,0.00,0.00,nan,-0.49,0.73,5.43,-670.19,-204.67,1,1,1,1,1,0,1,0,0,0
41916,2370,58.82,3,0,1,0,3,0,11.35,8.34,5.99,0.00,0.00,0.00,0.00,nan,-0.82,0.89,5.72,-688.88,-231.88,1,1,1,1,1,0,1,0,0,0
41921,2375,45.45,3,0,1,0,3,0,11.35,8.34,5.99,0.00,0.00,0.00,0.00,nan,-0.99,0.99,5.86,-698.84,-242.61,1,1,1,1,1,0,1,0,0,0
41939,2393,25.00,3,0,1,0,3,0,11.35,8.34,5.99,0.00,0.00,0.00,0.00,nan,-1.04,1.01,5.89,-697.58,-244.77,1,1,1,1,1,0,1,0,0,0
41944,2398,22.22,3,0,1,0,3,0,11.35,8.34,5.99,0.00,0.00,0.00,0.00,nan,-1.18,1.13,6.02,-712.16,-256.46,1,1,1,1,1,0,1,0,0,0
42019,2473,8.33,3,0,1,0,3,0,11.35,8.34,5.99,0.00,0.00,0.00,0.00,nan,-1.88,1.67,6.19,-723.65,-299.20,1,1,1,1,1,0,1,0,0,0
42024,2478,8.00,3,0,1,0,3,0,11.35,8.34,5.99,0.00,0.00,0.00,0.00,nan,-2.08,1.82,6.18,-715.45,-310.31,1,1,1,1,1,0,1,0,0,0
42041,2495,7.04,3,0,1,0,3,0,11.35,8.34,5.99,0.00,0.00,0.00,0.00,nan,-2.13,1.86,6.18,-711.49,-313.21,1,1,1,1,1,0,1,0,0,0
42047,2501,6.76,3,0,1,0,3,0,11.35,8.34,5.99,0.00,0.00,0.00,0.00,nan,-2.35,2.01,6.12,-707.43,-326.74,1,1,1,1,1,0,1,0,0,0
42064,2518,6.06,3,0,1,0,3,0,11.35,8.34,5.99,0.00,0.00,0.00,0.00,nan,-2.41,2.05,6.11,-702.92,-326.02,1,1,1,1,1,0,1,0,0,0
42069,2523,5.88,3,0,1,0,3,0,11.35,8.34,5.99,0.00,0.00,0.00,0.00,nan,-2.65,2.19,6.01,-698.24,-336.26,1,1,1,1,1,0,1,0,0,0
42087,2541,5.32,3,0,1,0,3,0,11.35,8.34,5.99,0.00,0.00,0.00,0.00,nan,-2.72,2.23,5.98,-688.68,-335.04,1,1,1,1,1,0,1,0,0,0
42177,2631,inf,3,0,1,0,3,0,11.50,8.34,5.99,0.00,0.00,0.00,0.00,nan,-4.47,2.67,5.00,-632.30,-362.86,0,0,0,0,1,0,1,0,0,0
42194,2648,58.82,3,0,1,0,3,0,11.50,8.34,5.99,0.00,0.00,0.00,0.00,nan,-5.34,2.67,4.43,-588.61,-344.23,0,0,0,0,1,0,1,0,0,0
42200,2654,43.48,3,0,1,0,3,0,11.50,8.34,5.99,0.00,0.00,0.00,0.00,nan,-5.79,2.61,4.17,-582.69,-328.12,0,0,0,0,1,0,1,0,0,0
42217,2671,25.00,3,0,1,0,3,0,11.50,8.34,5.99,0.00,0.00,0.00,0.00,nan,-5.89,2.59,4.10,-581.96,-325.41,0,0,0,0,1,0,1,0,0,0
42222,2676,22.22,3,0,1,0,3,0,11.50,8.34,5.99,0.00,0.00,0.00,0.00,nan,-6.31,2.48,3.88,-583.25,-310.01,0,0,0,0,1,0,1,0,0,0
42297,2751,8.33,3,0,1,0,3,0,11.50,8.34,5.99,0.00,0.00,0.00,0.00,nan,-7.67,1.95,3.56,-611.70,-280.58,0,0,0,0,1,0,1,0,0,0
42302,2756,8.00,3,0,1,0,3,0,11.50,8.34,5.99,0.00,0.00,0.00,0.00,nan,-7.96,1.81,3.61,-649.60,-271.02,0,0,0,0,1,0,1,0,0,0
42319,2773,7.04,3,0,1,0,3,0,11.50,8.34,5.99,0.00,0.00,0.00,0.00,nan,-8.03,1.77,3.62,-654.79,-271.78,0,0,0,0,1,0,1,0,0,0
42325,2779,6.76,3,0,1,0,3,0,11.50,8.34,5.99,0.00,0.00,0.00,0.00,nan,-8.32,1.65,3.71,-669.88,-271.79,0,0,0,0,1,0,1,0,0,0
42342,2796,6.06,3,0,1,0,3,0,11.50,8.34,5.99,0.00,0.00,0.00,0.00,nan,-8.39,1.62,3.74,-679.56,-271.11,0,0,0,0,1,0,1,0,0,0
42347,2801,5.88,3,0,1,0,3,0,11.50,8.34,5.99,0.00,0.00,0.00,0.00,nan,-8.66,1.52,3.88,-697.40,-270.50,0,0,0,0,1,0,1,0,0,0
42364,2818,5.35,3,0,1,0,3,0,11.50,8.34,5.99,0.00,0.00,0.00,0.00,nan,-8.73,1.50,3.91,-698.48,-272.24,0,0,0,0,1,0,1,0,0,0
42454,2908,inf,3,0,1,0,3,0,11.50,8.33,5.99,0.00,0.00,0.00,0.00,nan,8.36,1.39,4.57,-757.88,-288.60,0,0,0,0,1,0,1,0,0,0
42471,2925,58.82,3,0,1,0,3,0,11.50,8.33,5.99,0.00,0.00,0.00,0.00,nan,7.78,1.50,4.81,-776.43,-316.91,0,0,0,0,1,0,1,0,0,0
42476,2930,45.45,3,0,1,0,3,0,11.50,8.33,5.99,0.00,0.00,0.00,0.00,nan,7.48,1.59,4.92,-780.38,-332.00,0,0,0,0,1,0,1,0,0,0
42494,2948,25.00,3,0,1,0,3,0,11.50,8.33,5.99,0.00,0.00,0.00,0.00,nan,7.40,1.61,4.94,-785.40,-337.16,0,0,0,0,1,0,1,0,0,0
42499,2953,22.22,3,0,1,0,3,0,11.50,8.33,5.99,0.00,0.00,0.00,0.00,nan,7.07,1.71,5.01,-783.04,-343.34,0,0,0,0,1,0,1,0,0,0
42574,3028,8.33,3,0,1,0,3,0,11.50,8.33,5.99,0.00,0.00,0.00,0.00,nan,5.50,2.13,4.85,-763.44,-377.62,0,0,0,0,1,0,1,0,0,0
42579,3033,8.00,3,0,1,0,3,0,11.50,8.33,5.99,0.00,0.00,0.00,0.00,nan,5.02,2.22,4.72,-739.27,-379.02,0,0,0,0,1,0,1,0,0,0
42597,3051,6.99,3,0,1,0,3,0,11.50,8.33,5.99,0.00,0.00,0.00,0.00,nan,4.90,2.24,4.69,-735.30,-383.72,0,0,0,0,1,0,1,0,0,0
42602,3056,6.76,3,0,1,0,3,0,11.50,8.33,5.99,0.00,0.00,0.00,0.00,nan,4.42,2.29,4.53,-724.90,-374.93,0,0,0,0,1,0,1,0,0,0
42619,3073,6.06,3,0,1,0,3,0,11.50,8.33,5.99,0.00,0.00,0.00,0.00,nan,4.30,2.30,4.48,-717.97,-373.34,0,0,0,0,1,0,1,0,0,0
42625,3079,5.85,3,0,1,0,3,0,11.50,8.33,5.99,0.00,0.00,0.00,0.00,nan,3.07,2.19,4.48,-767.63,-335.31,0,0,0,0,1,0,1,0,0,0
42642,3096,5.32,3,0,1,0,3,0,11.50,8.33,5.99,0.00,0.00,0.00,0.00,nan,2.81,2.09,4.58,-868.78,-249.80,0,0,0,0,1,0,1,0,0,0
42732,3186,inf,3,0,1,0,3,0,10.87,8.32,5.97,0.00,0.00,0.00,0.00,nan,-2.14,1.47,4.29,-759.95,-292.21,1,1,1,1,1,0,0,0,0,0
42749,3203,58.82,3,0,1,0,3,0,10.87,8.32,5.97,0.00,0.00,0.00,0.00,nan,-3.62,1.50,4.48,-819.59,-334.90,1,1,1,1,1,0,0,0,0,0
42755,3209,43.48,3,0,1,0,3,0,10.87,8.32,5.97,0.00,0.00,0.00,0.00,nan,-4.44,1.56,4.53,-814.91,-349.29,1,1,1,1,1,0,0,0,0,0
42772,3226,25.00,3,0,1,0,3,0,10.87,8.32,5.97,0.00,0.00,0.00,0.00,nan,-4.65,1.57,4.54,-810.71,-350.20,1,1,1,1,1,0,0,0,0,0
42777,3231,22.22,3,0,1,0,3,0,10.87,8.32,5.97,0.00,0.00,0.00,0.00,nan,-5.48,1.64,4.56,-813.22,-361.00,1,1,1,1,1,0,0,0,0,0
42852,3306,8.33,3,0,1,0,3,0,10.87,8.32,5.97,0.00,0.00,0.00,0.00,nan,-8.60,1.85,4.45,-810.46,-373.61,1,1,1,1,1,0,0,0,0,0
42857,3311,8.00,3,0,1,0,3,0,10.87,8.32,5.97,0.00,0.00,0.00,0.00,nan,8.90,1.84,4.37,-799.19,-359.46,1,1,1,1,1,0,0,0,0,0
42875,3329,6.99,3,0,1,0,3,0,10.87,8.32,5.97,0.00,0.00,0.00,0.00,nan,8.69,1.84,4.37,-812.62,-358.55,1,1,1,1,1,0,0,0,0,0
42880,3334,6.76,3,0,1,0,3,0,10.87,8.32,5.97,0.00,0.00,0.00,0.00,nan,7.83,1.82,4.28,-795.56,-357.68,1,1,1,1,1,0,0,0,0,0
42897,3351,6.06,3,0,1,0,3,0,10.87,8.32,5.97,0.00,0.00,0.00,0.00,nan,7.63,1.81,4.29,-824.88,-359.60,1,1,1,1,1,0,0,0,0,0
42903,3357,5.85,3,0,1,0,3,0,10.87,8.32,5.97,0.00,0.00,0.00,0.00,nan,6.80,1.79,4.26,-814.80,-357.37,1,1,1,1,1,0,0,0,0,0
42920,3374,5.32,3,0,1,0,3,0,10.87,8.32,5.97,0.00,0.00,0.00,0.00,nan,6.59,1.78,4.26,-815.12,-355.83,1,1,1,1,1,0,0,0,0,0
43010,3464,inf,3,0,1,0,3,0,10.89,8.31,5.97,0.00,0.00,0.00,0.00,nan,3.06,1.33,4.19,-831.46,-318.26,1,1,1,1,1,0,0,0,0,0
43027,3481,58.82,3,0,1,0,3,0,10.89,8.31,5.97,0.00,0.00,0.00,0.00,nan,1.87,1.34,4.42,-886.05,-347.18,1,1,1,1,1,0,0,0,0,0
43032,3486,45.45,3,0,1,0,3,0,10.89,8.31,5.97,0.00,0.00,0.00,0.00,nan,1.24,1.40,4.48,-881.25,-365.51,1,1,1,1,1,0,0,0,0,0
43050,3504,25.00,3,0,1,0,3,0,10.89,8.31,5.97,0.00,0.00,0.00,0.00,nan,1.09,1.42,4.50,-880.63,-368.64,1,1,1,1,1,0,0,0,0,0
43055,3509,22.22,3,0,1,0,3,0,10.89,8.31,5.97,0.00,0.00,0.00,0.00,nan,0.44,1.49,4.51,-873.49,-375.51,1,1,1,1,1,0,0,0,0,0
43130,3584,8.33,3,0,1,0,3,0,10.89,8.31,5.97,0.00,0.00,0.00,0.00,nan,-3.47,1.39,4.69,-909.51,-349.54,1,1,1,1,1,0,0,0,0,0
43135,3589,8.00,3,0,1,0,3,0,10.89,8.31,5.97,0.00,0.00,0.00,0.00,nan,-4.35,1.38,4.72,-912.87,-355.76,1,1,1,1,1,0,0,0,0,0
43152,3606,7.04,3,0,1,0,3,0,10.89,8.31,5.97,0.00,0.00,0.00,0.00,nan,-4.58,1.38,4.73,-911.02,-355.17,1,1,1,1,1,0,0,0,0,0
43158,3612,6.76,3,0,1,0,3,0,10.89,8.31,5.97,0.00,0.00,0.00,0.00,nan,-5.44,1.41,4.75,-917.29,-368.36,1,1,1,1,1,0,0,0,0,0
43175,3629,6.06,3,0,1,0,3,0,10.89,8.31,5.97,0.00,0.00,0.00,0.00,nan,-5.65,1.42,4.76,-913.93,-372.88,1,1,1,1,1,0,0,0,0,0
43180,3634,5.88,3,0,1,0,3,0,10.89,8.31,5.97,0.00,0.00,0.00,0.00,nan,-6.32,1.46,4.75,-916.52,-372.55,1,1,1,1,1,0,0,0,0,0
43197,3651,5.35,3,0,1,0,3,0,10.89,8.31,5.97,0.00,0.00,0.00,0.00,nan,-6.47,1.46,4.75,-912.45,-371.43,1,1,1,1,1,0,0,0,0,0
43287,3741,inf,3,0,1,0,3,0,10.72,8.30,5.97,0.00,0.00,0.00,0.00,nan,-8.56,1.57,4.73,-935.05,-383.48,1,1,1,1,1,0,0,0,0,0
43304,3758,58.82,3,0,1,0,3,0,10.72,8.30,5.97,0.00,0.00,0.00,0.00,nan,8.97,1.62,4.64,-927.73,-390.25,1,1,1,1,1,0,0,0,0,0
43309,3763,45.45,3,0,1,0,3,0,10.72,8.30,5.97,0.00,0.00,0.00,0.00,nan,8.63,1.59,4.68,-956.93,-376.08,1,1,1,1,1,0,0,0,0,0
43327,3781,25.00,3,0,1,0,3,0,10.72,8.30,5.97,0.00,0.00,0.00,0.00,nan,8.54,1.58,4.68,-947.75,-375.94,1,1,1,1,1,0,0,0,0,0
43332,3786,22.22,3,0,1,0,3,0,10.72,8.30,5.97,0.00,0.00,0.00,0.00,nan,8.10,1.60,4.67,-947.61,-389.20,1,1,1,1,1,0,0,0,0,0
43407,3861,8.33,3,0,1,0,3,0,10.72,8.30,5.97,0.00,0.00,0.00,0.00,nan,6.91,1.66,4.72,-973.79,-398.79,1,1,1,1,1,0,0,0,0,0
43412,3866,8.00,3,0,1,0,3,0,10.72,8.30,5.97,0.00,0.00,0.00,0.00,nan,6.53,1.65,4.70,-967.25,-394.08,1,1,1,1,1,0,0,0,0,0
43429,3883,7.04,3,0,1,0,3,0,10.72,8.30,5.97,0.00,0.00,0.00,0.00,nan,6.44,1.65,4.70,-975.99,-401.29,1,1,1,1,1,0,0,0,0,0
43435,3889,6.76,3,0,1,0,3,0,10.72,8.30,5.97,0.00,0.00,0.00,0.00,nan,6.11,1.67,4.69,-974.31,-402.69,1,1,1,1,1,0,0,0,0,0
43452,3906,6.06,3,0,1,0,3,0,10.72,8.30,5.97,0.00,0.00,0.00,0.00,nan,6.02,1.68,4.68,-974.51,-408.59,1,1,1,1,1,0,0,0,0,0
43457,3911,5.88,3,0,1,0,3,0,10.72,8.30,5.97,0.00,0.00,0.00,0.00,nan,5.74,1.71,4.66,-976.67,-410.49,1,1,1,1,1,0,0,0,0,0
43475,3929,5.32,3,0,1,0,3,0,10.72,8.30,5.97,0.00,0.00,0.00,0.00,nan,5.67,1.72,4.66,-978.93,-419.15,1,1,1,1,1,0,0,0,0,0
43565,4019,inf,3,0,1,0,3,0,11.50,8.32,5.99,0.00,0.00,0.00,0.00,nan,4.69,1.94,4.63,-999.54,-436.93,0,0,0,0,1,0,0,0,0,0
45597,6051,inf,4,0,1,0,3,0,11.50,8.33,5.99,0.00,0.00,0.00,0.00,nan,-1.10,1.66,1.70,-1024.82,-601.24,0,0,0,0,1,0,0,0,1,1
45771,6225,5.75,4,0,1,0,3,0,11.50,8.33,5.99,0.00,0.00,0.00,0.00,nan,1.60,1.38,2.89,-1155.09,-595.13,0,0,0,0,1,0,0,0,1,1
45776,6230,5.59,4,0,1,0,3,0,11.50,8.33,5.99,0.00,0.00,0.00,0.00,nan,0.19,1.28,2.93,-1146.86,-571.30,0,0,0,0,1,0,0,0,1,1
45793,6247,5.10,4,0,1,0,3,0,11.50,8.33,5.99,0.00,0.00,0.00,0.00,nan,-0.17,1.27,2.95,-1152.56,-581.92,0,0,0,0,1,0,0,0,1,1
45813,6267,inf,4,0,1,0,3,0,11.49,8.33,5.99,0.00,0.00,0.00,0.00,nan,-1.63,1.29,3.01,-1159.11,-602.35,1,1,1,1,1,0,0,0,1,1
45831,6285,55.56,4,0,1,0,3,0,11.49,8.33,5.99,0.00,0.00,0.00,0.00,nan,-3.41,1.36,3.13,-1177.89,-618.46,1,1,1,1,1,0,0,0,1,1
46005,6459,5.21,4,0,1,0,3,0,11.49,8.33,5.99,0.00,0.00,0.00,0.00,nan,-2.85,1.50,2.77,-1151.28,-629.99,1,1,1,1,1,0,0,0,1,1
46010,6464,5.08,4,0,1,0,3,0,11.49,8.33,5.99,0.00,0.00,0.00,0.00,nan,-4.48,1.47,2.75,-1156.27,-619.52,1,1,1,1,1,0,0,0,1,1
46042,6496,inf,4,0,1,0,3,0,11.50,8.34,5.99,0.00,0.00,0.00,0.00,nan,-4.87,1.47,2.75,-1163.02,-621.94,0,0,0,0,1,0,0,0,1,1
46059,6513,58.82,4,0,1,0,3,0,11.50,8.34,5.99,0.00,0.00,0.00,0.00,nan,-7.99,1.44,2.79,-1174.86,-624.05,0,0,0,0,1,0,0,0,1,1
46064,6518,45.45,4,0,1,0,3,0,11.50,8.34,5.99,0.00,0.00,0.00,0.00,nan,8.73,1.50,2.82,-1181.48,-645.34,0,0,0,0,1,0,0,0,1,1
46238,6692,5.10,4,0,1,0,3,0,11.50,8.34,5.99,0.00,0.00,0.00,0.00,nan,-7.86,2.03,2.25,-1146.90,-694.61,0,0,0,0,1,0,0,0,1,1
46258,6712,inf,4,0,1,0,3,0,11.50,8.33,5.99,0.00,0.00,0.00,0.00,nan,8.89,2.14,2.32,-1185.92,-716.62,0,0,0,0,1,0,0,0,1,1
46275,6729,58.82,4,0,1,0,3,0,11.50,8.33,5.99,0.00,0.00,0.00,0.00,nan,6.91,2.27,2.24,-1147.68,-726.56,0,0,0,0,1,0,0,0,1,1
46281,6735,43.48,4,0,1,0,3,0,11.50,8.33,5.99,0.00,0.00,0.00,0.00,nan,5.23,2.20,2.15,-1137.98,-681.64,0,0,0,0,1,0,0,0,1,1
46298,6752,25.00,4,0,1,0,3,0,11.50,8.33,5.99,0.00,0.00,0.00,0.00,nan,4.83,2.20,2.15,-1162.89,-691.11,0,0,0,0,1,0,0,0,1,1
46487,6941,inf,4,0,1,0,3,0,11.33,8.34,5.98,0.00,0.00,0.00,0.00,nan,5.50,1.70,2.03,-1173.40,-674.68,1,1,1,1,1,0,0,0,1,1
46504,6958,58.82,4,0,1,0,3,0,11.33,8.34,5.98,0.00,0.00,0.00,0.00,nan,2.33,1.71,2.00,-1172.37,-689.81,1,1,1,1,1,0,0,0,1,1
46509,6963,45.45,4,0,1,0,3,0,11.33,8.34,5.98,0.00,0.00,0.00,0.00,nan,1.04,1.67,1.99,-1178.35,-681.05,1,1,1,1,1,0,0,0,1,1
46526,6980,25.64,4,0,1,0,3,0,11.33,8.34,5.98,0.00,0.00,0.00,0.00,nan,0.75,1.67,2.00,-1192.57,-686.16,1,1,1,1,1,0,0,0,1,1
46532,6986,22.22,4,0,1,0,3,0,11.33,8.34,5.98,0.00,0.00,0.00,0.00,nan,-0.42,1.70,2.06,-1198.66,-700.17,1,1,1,1,1,0,0,0,1,1
46721,7175,inf,4,0,1,0,3,0,11.49,8.34,5.99,0.00,0.00,0.00,0.00,nan,8.65,1.71,1.96,-1194.67,-708.76,1,1,1,1,1,0,0,0,0,1
46738,7192,58.82,4,0,1,0,3,0,11.49,8.34,5.99,0.00,0.00,0.00,0.00,nan,6.80,1.71,1.95,-1198.74,-713.07,1,1,1,1,1,0,0,0,0,1
46743,7197,45.45,4,0,1,0,3,0,11.49,8.34,5.99,0.00,0.00,0.00,0.00,nan,5.86,1.71,1.93,-1196.06,-712.47,1,1,1,1,1,0,0,0,0,1
46761,7215,25.00,4,0,1,0,3,0,11.49,8.34,5.99,0.00,0.00,0.00,0.00,nan,5.63,1.71,1.92,-1197.49,-714.39,1,1,1,1,1,0,0,0,0,1
46766,7220,22.22,4,0,1,0,3,0,11.49,8.34,5.99,0.00,0.00,0.00,0.00,nan,4.73,1.71,1.91,-1199.11,-714.44,1,1,1,1,1,0,0,0,0,1
46955,7409,inf,4,0,1,0,3,0,11.35,8.34,5.98,0.00,0.00,0.00,0.00,nan,-0.96,1.78,1.98,-1225.52,-737.90,1,1,1,1,1,0,0,0,0,1
46972,7426,58.82,4,0,1,0,3,0,11.35,8.34,5.98,0.00,0.00,0.00,0.00,nan,-1.84,1.80,2.00,-1232.55,-743.08,1,1,1,1,1,0,0,0,0,1
46977,7431,45.45,4,0,1,0,3,0,11.35,8.34,5.98,0.00,0.00,0.00,0.00,nan,-2.24,1.81,2.01,-1232.79,-744.26,1,1,1,1,1,0,0,0,0,1
46995,7449,25.00,4,0,1,0,3,0,11.35,8.34,5.98,0.00,0.00,0.00,0.00,nan,-2.34,1.81,2.01,-1235.50,-743.61,1,1,1,1,1,0,0,0,0,1
47000,7454,22.22,4,0,1,0,3,0,11.35,8.34,5.98,0.00,0.00,0.00,0.00,nan,-2.69,1.82,2.02,-1235.79,-745.52,1,1,1,1,1,0,0,0,0,1
47189,7643,inf,4,0,1,0,3,0,11.50,8.34,5.99,0.00,0.00,0.00,0.00,nan,-3.60,1.79,2.02,-1252.96,-758.78,0,0,0,0,1,0,0,0,0,1
47206,7660,58.82,4,0,1,0,3,0,11.50,8.34,5.99,0.00,0.00,0.00,0.00,nan,-3.70,1.79,2.03,-1258.71,-763.11,0,0,0,0,1,0,0,0,0,1
47211,7665,45.45,4,0,1,0,3,0,11.50,8.34,5.99,0.00,0.00,0.00,0.00,nan,-3.74,1.79,2.04,-1261.04,-765.86,0,0,0,0,1,0,0,0,0,1
47229,7683,25.00,4,0,1,0,3,0,11.50,8.34,5.99,0.00,0.00,0.00,0.00,nan,-3.75,1.79,2.04,-1261.76,-763.89,0,0,0,0,1,0,0,0,0,1
47234,7688,22.22,4,0,1,0,3,0,11.50,8.34,5.99,0.00,0.00,0.00,0.00,nan,-3.76,1.79,2.04,-1262.53,-766.39,0,0,0,0,1,0,0,0,0,1
47423,7877,inf,4,0,1,0,3,0,11.50,8.34,5.99,0.00,0.00,0.00,0.00,nan,-2.81,1.80,2.06,-1282.00,-783.71,0,0,0,0,1,0,0,0,0,1
47440,7894,58.82,4,0,1,0,3,0,11.50,8.34,5.99,0.00,0.00,0.00,0.00,nan,-2.64,1.78,2.05,-1284.66,-783.45,0,0,0,0,1,0,0,0,0,1
47445,7899,45.45,4,0,1,0,3,0,11.50,8.34,5.99,0.00,0.00,0.00,0.00,nan,-2.55,1.78,2.05,-1286.88,-786.20,0,0,0,0,1,0,0,0,0,1
47463,7917,25.00,4,0,1,0,3,0,11.50,8.34,5.99,0.00,0.00,0.00,0.00,nan,-2.53,1.78,2.06,-1289.46,-787.23,0,0,0,0,1,0,0,0,0,1
47468,7922,22.22,4,0,1,0,3,0,11.50,8.34,5.99,0.00,0.00,0.00,0.00,nan,-2.44,1.78,2.05,-1287.75,-790.28,0,0,0,0,1,0,0,0,0,1
47657,8111,inf,4,0,1,0,3,1,11.49,8.34,5.99,0.00,0.00,0.00,0.00,nan,-0.73,1.78,2.01,-1303.92,-806.04,1,1,1,1,1,0,0,0,0,1
47674,8128,58.82,4,0,1,0,3,1,11.49,8.34,5.99,0.00,0.00,0.00,0.00,nan,-0.33,1.78,2.00,-1306.85,-807.95,1,1,1,1,1,0,0,0,0,1
47679,8133,45.45,4,0,1,0,3,1,11.49,8.34,5.99,0.00,0.00,0.00,0.00,nan,-0.12,1.77,2.00,-1309.42,-808.73,1,1,1,1,1,0,0,0,0,1
47696,8150,25.64,4,0,1,0,3,1,11.49,8.34,5.99,0.00,0.00,0.00,0.00,nan,-0.06,1.77,1.99,-1308.79,-810.27,1,1,1,1,1,0,0,0,0,1
47702,8156,22.22,4,0,1,0,3,1,11.49,8.34,5.99,0.00,0.00,0.00,0.00,nan,0.17,1.78,1.99,-1309.53,-813.78,1,1,1,1,1,0,0,0,0,1
47891,8345,inf,4,0,1,0,3,1,11.50,8.34,5.99,0.00,0.00,0.00,0.00,nan,0.74,1.82,1.98,-1329.43,-832.57,0,0,0,0,1,0,0,0,0,1
47908,8362,58.82,4,0,1,0,3,1,11.50,8.34,5.99,0.00,0.00,0.00,0.00,nan,0.73,1.81,1.98,-1333.18,-833.43,0,0,0,0,1,0,0,0,0,1
47913,8367,45.45,4,0,1,0,3,1,11.50,8.34,5.99,0.00,0.00,0.00,0.00,nan,0.66,1.81,1.99,-1337.51,-835.14,0,0,0,0,1,0,0,0,0,1
47930,8384,25.64,4,0,1,0,3,1,11.50,8.34,5.99,0.00,0.00,0.00,0.00,nan,0.64,1.81,1.99,-1336.13,-836.33,0,0,0,0,1,0,0,0,0,1
47936,8390,22.22,4,0,1,0,3,1,11.50,8.34,5.99,0.00,0.00,0.00,0.00,nan,0.53,1.81,1.99,-1337.82,-837.07,0,0,0,0,1,0,0,0,0,1
48124,8578,inf,4,0,1,0,3,1,11.49,8.34,5.99,0.00,0.00,0.00,0.00,nan,0.79,1.76,1.97,-1354.03,-849.71,1,1,1,1,1,0,0,0,0,1
48141,8595,58.82,4,0,1,0,3,1,11.49,8.34,5.99,0.00,0.00,0.00,0.00,nan,0.89,1.76,1.96,-1355.75,-854.95,1,1,1,1,1,0,0,0,0,1
48146,8600,45.45,4,0,1,0,3,1,11.49,8.34,5.99,0.00,0.00,0.00,0.00,nan,0.95,1.75,1.96,-1358.59,-853.94,1,1,1,1,1,0,0,0,0,1
48163,8617,25.64,4,0,1,0,3,1,11.49,8.34,5.99,0.00,0.00,0.00,0.00,nan,0.97,1.75,1.96,-1360.08,-854.53,1,1,1,1,1,0,0,0,0,1
48169,8623,22.22,4,0,1,0,3,1,11.49,8.34,5.99,0.00,0.00,0.00,0.00,nan,1.04,1.75,1.96,-1361.09,-856.48,1,1,1,1,1,0,0,0,0,1
48358,8812,inf,4,0,1,0,3,1,11.50,8.34,5.99,0.00,0.00,0.00,0.00,nan,1.08,1.79,1.91,-1375.33,-877.29,0,0,0,0,1,0,0,0,0,1
48375,8829,58.82,4,0,1,0,3,1,11.50,8.34,5.99,0.00,0.00,0.00,0.00,nan,1.12,1.79,1.92,-1380.47,-878.71,0,0,0,0,1,0,0,0,0,1
48380,8834,45.45,4,0,1,0,3,1,11.50,8.34,5.99,0.00,0.00,0.00,0.00,nan,1.14,1.79,1.92,-1383.37,-880.23,0,0,0,0,1,0,0,0,0,1
48397,8851,25.64,4,0,1,0,3,1,11.50,8.34,5.99,0.00,0.00,0.00,0.00,nan,1.15,1.79,1.92,-1383.58,-881.12,0,0,0,0,1,0,0,0,0,1
48403,8857,22.22,4,0,1,0,3,1,11.50,8.34,5.99,0.00,0.00,0.00,0.00,nan,1.15,1.78,1.92,-1383.59,-879.81,0,0,0,0,1,0,0,0,0,1
48592,9046,inf,4,0,1,0,3,1,11.31,8.34,5.98,0.00,0.00,0.00,0.00,nan,1.11,1.76,1.90,-1399.47,-896.85,1,1,1,1,1,0,0,0,0,1
48609,9063,58.82,4,0,1,0,3,1,11.31,8.34,5.98,0.00,0.00,0.00,0.00,nan,1.09,1.75,1.89,-1403.27,-899.00,1,1,1,1,1,0,0,0,0,1
48614,9068,45.45,4,0,1,0,3,1,11.31,8.34,5.98,0.00,0.00,0.00,0.00,nan,1.10,1.75,1.90,-1406.64,-900.94,1,1,1,1,1,0,0,0,0,1
48631,9085,25.64,4,0,1,0,3,1,11.31,8.34,5.98,0.00,0.00,0.00,0.00,nan,1.10,1.75,1.90,-1405.83,-900.71,1,1,1,1,1,0,0,0,0,1
48637,9091,22.22,4,0,1,0,3,1,11.31,8.34,5.98,0.00,0.00,0.00,0.00,nan,1.10,1.74,1.89,-1406.27,-902.21,1,1,1,1,1,0,0,0,0,1
48826,9280,inf,4,0,1,0,3,1,11.50,8.33,5.99,0.00,0.00,0.00,0.00,nan,1.05,1.69,1.87,-1422.40,-914.36,0,0,0,0,1,0,0,0,0,0
48843,9297,58.82,4,0,1,0,3,1,11.50,8.33,5.99,0.00,0.00,0.00,0.00,nan,1.05,1.69,1.87,-1426.89,-918.80,0,0,0,0,1,0,0,0,0,0
48848,9302,45.45,4,0,1,0,3,1,11.50,8.33,5.99,0.00,0.00,0.00,0.00,nan,1.05,1.69,1.87,-1428.45,-919.68,0,0,0,0,1,0,0,0,0,0
48865,9319,25.64,4,0,1,0,3,1,11.50,8.33,5.99,0.00,0.00,0.00,0.00,nan,1.05,1.69,1.87,-1428.29,-919.26,0,0,0,0,1,0,0,0,0,0
48871,9325,22.22,4,0,1,0,3,1,11.50,8.33,5.99,0.00,0.00,0.00,0.00,nan,1.06,1.68,1.87,-1430.38,-920.87,0,0,0,0,1,0,0,0,0,0
49060,9514,inf,4,0,1,0,3,1,11.49,8.34,5.98,0.00,0.00,0.00,0.00,nan,1.05,1.68,1.85,-1446.04,-936.58,1,1,1,1,1,0,0,0,0,0
49077,9531,58.82,4,0,1,0,3,1,11.49,8.34,5.98,0.00,0.00,0.00,0.00,nan,1.05,1.68,1.85,-1449.83,-939.90,1,1,1,1,1,0,0,0,0,0
49082,9536,45.45,4,0,1,0,3,1,11.49,8.34,5.98,0.00,0.00,0.00,0.00,nan,1.05,1.68,1.86,-1451.68,-942.22,1,1,1,1,1,0,0,0,0,0
49099,9553,25.64,4,0,1,0,3,1,11.49,8.34,5.98,0.00,0.00,0.00,0.00,nan,1.05,1.68,1.85,-1451.00,-941.58,1,1,1,1,1,0,0,0,0,0
49105,9559,22.22,4,0,1,0,3,1,11.49,8.34,5.98,0.00,0.00,0.00,0.00,nan,1.05,1.69,1.86,-1454.57,-945.18,1,1,1,1,1,0,0,0,0,0
49294,9748,inf,4,0,1,0,3,1,11.50,8.34,5.99,0.00,0.00,0.00,0.00,nan,1.07,1.70,1.86,-1470.74,-960.21,0,0,0,0,1,0,0,0,0,0
49311,9765,58.82,4,0,1,0,3,1,11.50,8.34,5.99,0.00,0.00,0.00,0.00,nan,1.07,1.70,1.86,-1473.98,-963.86,0,0,0,0,1,0,0,0,0,0
49316,9770,45.45,4,0,1,0,3,1,11.50,8.34,5.99,0.00,0.00,0.00,0.00,nan,1.07,1.70,1.85,-1474.74,-963.74,0,0,0,0,1,0,0,0,0,0
49333,9787,25.64,4,0,1,0,3,1,11.50,8.34,5.99,0.00,0.00,0.00,0.00,nan,1.07,1.70,1.85,-1476.46,-964.65,0,0,0,0,1,0,0,0,0,0
49339,9793,22.22,4,0,1,0,3,1,11.50,8.34,5.99,0.00,0.00,0.00,0.00,nan,1.07,1.69,1.85,-1476.66,-964.97,0,0,0,0,1,0,0,0,0,0
49528,9982,inf,4,0,1,0,3,1,11.51,8.34,5.99,0.00,0.00,0.00,0.00,nan,1.02,1.63,1.79,-1489.14,-975.94,0,0,0,0,1,0,0,0,0,0
49545,9999,58.82,4,0,1,0,3,1,11.51,8.34,5.99,0.00,0.00,0.00,0.00,nan,1.02,1.62,1.79,-1494.00,-979.44,0,0,0,0,1,0,0,0,0,0
49550,10004,45.45,4,0,1,0,3,1,11.51,8.34,5.99,0.00,0.00,0.00,0.00,nan,1.02,1.62,1.79,-1495.73,-981.02,0,0,0,0,1,0,0,0,0,0
49567,10021,25.64,4,0,1,0,3,1,11.51,8.34,5.99,0.00,0.00,0.00,0.00,nan,1.02,1.62,1.79,-1496.95,-981.22,0,0,0,0,1,0,0,0,0,0
49572,10026,22.73,4,0,1,0,3,1,11.51,8.34,5.99,0.00,0.00,0.00,0.00,nan,1.02,1.62,1.79,-1497.92,-983.36,0,0,0,0,1,0,0,0,0,0
49762,10216,inf,4,0,1,0,3,1,11.50,8.34,5.99,0.00,0.00,0.00,0.00,nan,1.03,1.64,1.83,-1517.27,-1000.17,0,0,0,0,1,0,0,0,0,0
49779,10233,58.82,4,0,1,0,3,1,11.50,8.34,5.99,0.00,0.00,0.00,0.00,nan,1.03,1.64,1.84,-1521.13,-1001.34,0,0,0,0,1,0,0,0,0,0
49784,10238,45.45,4,0,1,0,3,1,11.50,8.34,5.99,0.00,0.00,0.00,0.00,nan,1.03,1.64,1.84,-1522.28,-1003.85,0,0,0,0,1,0,0,0,0,0
49801,10255,25.64,4,0,1,0,3,1,11.50,8.34,5.99,0.00,0.00,0.00,0.00,nan,1.03,1.64,1.84,-1520.74,-1003.27,0,0,0,0,1,0,0,0,0,0
49807,10261,22.22,4,0,1,0,3,1,11.50,8.34,5.99,0.00,0.00,0.00,0.00,nan,1.03,1.64,1.83,-1523.39,-1006.83,0,0,0,0,1,0,0,0,0,0
49996,10450,inf,4,0,1,0,3,1,11.50,8.34,5.99,0.00,0.00,0.00,0.00,nan,1.04,1.67,1.85,-1542.38,-1023.60,0,0,0,0,1,0,0,0,0,0
50013,10467,58.82,4,0,1,0,3,1,11.50,8.34,5.99,0.00,0.00,0.00,0.00,nan,1.04,1.67,1.85,-1545.45,-1025.71,0,0,0,0,1,0,0,0,0,0
50018,10472,45.45,4,0,1,0,3,1,11.50,8.34,5.99,0.00,0.00,0.00,0.00,nan,1.05,1.67,1.86,-1548.99,-1027.53,0,0,0,0,1,0,0,0,0,0
50035,10489,25.64,4,0,1,0,3,1,11.50,8.34,5.99,0.00,0.00,0.00,0.00,nan,1.05,1.67,1.86,-1548.12,-1026.61,0,0,0,0,1,0,0,0,0,0
50041,10495,22.22,4,0,1,0,3,1,11.50,8.34,5.99,0.00,0.00,0.00,0.00,nan,1.05,1.67,1.86,-1548.84,-1029.39,0,0,0,0,1,0,0,0,0,0
50230,10684,inf,4,0,1,0,3,1,11.50,8.34,5.99,0.00,0.00,0.00,0.00,nan,1.07,1.63,1.87,-1567.24,-1040.79,0,0,0,0,1,0,0,0,0,0
50247,10701,58.82,4,0,1,0,3,1,11.50,8.34,5.99,0.00,0.00,0.00,0.00,nan,1.08,1.64,1.87,-1571.53,-1046.98,0,0,0,0,1,0,0,0,0,0
50252,10706,45.45,4,0,1,0,3,1,11.50,8.34,5.99,0.00,0.00,0.00,0.00,nan,1.09,1.64,1.88,-1573.86,-1047.08,0,0,0,0,1,0,0,0,0,0
50269,10723,25.64,4,0,1,0,3,1,11.50,8.34,5.99,0.00,0.00,0.00,0.00,nan,1.09,1.64,1.88,-1572.44,-1047.21,0,0,0,0,1,0,0,0,0,0
50275,10729,22.22,4,0,1,0,3,1,11.50,8.34,5.99,0.00,0.00,0.00,0.00,nan,1.08,1.64,1.88,-1574.53,-1047.39,0,0,0,0,1,0,0,0,0,0
50464,10918,inf,4,0,1,0,3,1,11.50,8.34,5.99,0.00,0.00,0.00,0.00,nan,1.07,1.62,1.86,-1590.10,-1062.61,0,0,0,0,1,0,0,0,0,0
50481,10935,58.82,4,0,1,0,3,1,11.50,8.34,5.99,0.00,0.00,0.00,0.00,nan,1.08,1.63,1.86,-1595.34,-1066.47,0,0,0,0,1,0,0,0,0,0
50486,10940,45.45,4,0,1,0,3,1,11.50,8.34,5.99,0.00,0.00,0.00,0.00,nan,1.08,1.63,1.87,-1598.11,-1068.28,0,0,0,0,1,0,0,0,0,0
50503,10957,25.64,4,0,1,0,3,1,11.50,8.34,5.99,0.00,0.00,0.00,0.00,nan,1.08,1.63,1.87,-1596.19,-1066.80,0,0,0,0,1,0,0,0,0,0
50509,10963,22.22,4,0,1,0,3,1,11.50,8.34,5.99,0.00,0.00,0.00,0.00,nan,1.07,1.62,1.86,-1595.78,-1067.53,0,0,0,0,1,0,0,0,0,0
50698,11152,inf,4,0,1,0,3,1,11.50,8.34,5.99,0.00,0.00,0.00,0.00,nan,1.07,1.65,1.89,-1618.34,-1086.63,0,0,0,0,1,0,0,0,0,0
50715,11169,58.82,4,0,1,0,3,1,11.50,8.34,5.99,0.00,0.00,0.00,0.00,nan,1.08,1.65,1.90,-1621.82,-1087.57,0,0,0,0,1,0,0,0,0,0
50720,11174,45.45,4,0,1,0,3,1,11.50,8.34,5.99,0.00,0.00,0.00,0.00,nan,1.08,1.64,1.90,-1622.48,-1089.43,0,0,0,0,1,0,0,0,0,0
50737,11191,25.64,4,0,1,0,3,1,11.50,8.34,5.99,0.00,0.00,0.00,0.00,nan,1.08,1.64,1.90,-1622.44,-1089.52,0,0,0,0,1,0,0,0,0,0
50743,11197,22.22,4,0,1,0,3,1,11.50,8.34,5.99,0.00,0.00,0.00,0.00,nan,1.08,1.64,1.90,-1624.57,-1092.20,0,0,0,0,1,0,0,0,0,0
50932,11386,inf,4,0,1,0,3,1,11.49,8.34,5.99,0.00,0.00,0.00,0.00,nan,1.16,1.66,2.00,-1651.79,-1108.42,1,1,1,1,1,0,0,0,0,0
50949,11403,58.82,4,0,1,0,3,1,11.49,8.34,5.99,0.00,0.00,0.00,0.00,nan,1.16,1.65,2.01,-1653.83,-1108.70,1,1,1,1,1,0,0,0,0,0
50954,11408,45.45,4,0,1,0,3,1,11.49,8.34,5.99,0.00,0.00,0.00,0.00,nan,1.16,1.64,2.01,-1655.92,-1110.11,1,1,1,1,1,0,0,0,0,0
50971,11425,25.64,4,0,1,0,3,1,11.49,8.34,5.99,0.00,0.00,0.00,0.00,nan,1.16,1.64,2.01,-1656.51,-1109.93,1,1,1,1,1,0,0,0,0,0
50976,11430,22.73,4,0,1,0,3,1,11.49,8.34,5.99,0.00,0.00,0.00,0.00,nan,1.16,1.64,2.01,-1658.43,-1111.98,1,1,1,1,1,0,0,0,0,0
51166,11620,inf,4,0,1,0,3,1,11.50,8.33,5.99,0.00,0.00,0.00,0.00,nan,1.22,1.63,2.08,-1682.48,-1127.23,0,0,0,0,1,0,0,0,0,0
51183,11637,58.82,4,0,1,0,3,1,11.50,8.33,5.99,0.00,0.00,0.00,0.00,nan,1.20,1.63,2.07,-1681.92,-1130.32,0,0,0,0,1,0,0,0,0,0
51188,11642,45.45,4,0,1,0,3,1,11.50,8.33,5.99,0.00,0.00,0.00,0.00,nan,1.21,1.63,2.07,-1686.07,-1131.90,0,0,0,0,1,0,0,0,0,0
51206,11660,25.00,4,0,1,0,3,1,11.50,8.33,5.99,0.00,0.00,0.00,0.00,nan,1.21,1.63,2.07,-1686.32,-1131.67,0,0,0,0,1,0,0,0,0,0
51211,11665,22.22,4,0,1,0,3,1,11.50,8.33,5.99,0.00,0.00,0.00,0.00,nan,1.20,1.64,2.07,-1687.20,-1135.75,0,0,0,0,1,0,0,0,0,0
51400,11854,inf,4,0,1,0,3,1,11.31,8.34,5.98,0.00,0.00,0.00,0.00,nan,1.27,1.60,2.11,-1710.57,-1146.17,1,1,1,1,1,0,0,0,0,0
51417,11871,58.82,4,0,1,0,3,1,11.31,8.34,5.98,0.00,0.00,0.00,0.00,nan,1.27,1.60,2.10,-1712.13,-1148.41,1,1,1,1,1,0,0,0,0,0
51422,11876,45.45,4,0,1,0,3,1,11.31,8.34,5.98,0.00,0.00,0.00,0.00,nan,1.27,1.59,2.10,-1715.70,-1150.33,1,1,1,1,1,0,0,0,0,0
51440,11894,25.00,4,0,1,0,3,1,11.31,8.34,5.98,0.00,0.00,0.00,0.00,nan,1.27,1.59,2.10,-1715.23,-1150.62,1,1,1,1,1,0,0,0,0,0
51445,11899,22.22,4,0,1,0,3,1,11.31,8.34,5.98,0.00,0.00,0.00,0.00,nan,1.27,1.59,2.10,-1716.33,-1152.82,1,1,1,1,1,0,0,0,0,0
51634,12088,inf,4,0,1,0,3,1,11.50,8.34,5.99,0.00,0.00,0.00,0.00,nan,1.29,1.59,2.14,-1739.83,-1167.20,0,0,0,0,1,0,0,0,0,0
51651,12105,58.82,4,0,1,0,3,1,11.50,8.34,5.99,0.00,0.00,0.00,0.00,nan,1.30,1.59,2.15,-1744.81,-1169.73,0,0,0,0,1,0,0,0,0,0
51656,12110,45.45,4,0,1,0,3,1,11.50,8.34,5.99,0.00,0.00,0.00,0.00,nan,1.30,1.60,2.15,-1747.47,-1172.44,0,0,0,0,1,0,0,0,0,0
51674,12128,25.00,4,0,1,0,3,1,11.50,8.34,5.99,0.00,0.00,0.00,0.00,nan,1.30,1.60,2.16,-1746.94,-1171.95,0,0,0,0,1,0,0,0,0,0
51679,12133,22.22,4,0,1,0,3,1,11.50,8.34,5.99,0.00,0.00,0.00,0.00,nan,1.31,1.59,2.16,-1749.46,-1172.97,0,0,0,0,1,0,0,0,0,0
51868,12322,inf,4,0,1,0,3,1,11.50,8.33,5.99,0.00,0.00,0.00,0.00,nan,1.34,1.58,2.19,-1771.32,-1186.51,0,0,0,0,1,0,0,0,0,0
51885,12339,58.82,4,0,1,0,3,1,11.50,8.33,5.99,0.00,0.00,0.00,0.00,nan,1.34,1.57,2.19,-1774.58,-1189.04,0,0,0,0,1,0,0,0,0,0
51890,12344,45.45,4,0,1,0,3,1,11.50,8.33,5.99,0.00,0.00,0.00,0.00,nan,1.34,1.57,2.19,-1774.91,-1189.79,0,0,0,0,1,0,0,0,0,0
51908,12362,25.00,4,0,1,0,3,1,11.50,8.33,5.99,0.00,0.00,0.00,0.00,nan,1.34,1.57,2.19,-1777.17,-1190.84,0,0,0,0,1,0,0,0,0,0
51913,12367,22.22,4,0,1,0,3,1,11.50,8.33,5.99,0.00,0.00,0.00,0.00,nan,1.34,1.57,2.19,-1778.84,-1193.39,0,0,0,0,1,0,0,0,0,0
52102,12556,inf,4,0,1,0,3,1,11.50,8.34,5.98,0.00,0.00,0.00,0.00,nan,1.33,1.56,2.21,-1801.00,-1205.67,0,0,0,0,1,0,0,0,0,0
52119,12573,58.82,4,0,1,0,3,1,11.50,8.34,5.98,0.00,0.00,0.00,0.00,nan,1.32,1.55,2.21,-1804.17,-1207.87,0,0,0,0,1,0,0,0,0,0
52124,12578,45.45,4,0,1,0,3,1,11.50,8.34,5.98,0.00,0.00,0.00,0.00,nan,1.32,1.55,2.21,-1806.12,-1208.91,0,0,0,0,1,0,0,0,0,0
52142,12596,25.00,4,0,1,0,3,1,11.50,8.34,5.98,0.00,0.00,0.00,0.00,nan,1.32,1.55,2.21,-1807.32,-1210.29,0,0,0,0,1,0,0,0,0,0
52147,12601,22.22,4,0,1,0,3,1,11.50,8.34,5.98,0.00,0.00,0.00,0.00,nan,1.32,1.55,2.21,-1808.21,-1212.12,0,0,0,0,1,0,0,0,0,0
52336,12790,inf,4,0,1,0,3,1,11.51,8.34,5.99,0.00,0.00,0.00,0.00,nan,1.35,1.59,2.23,-1831.05,-1229.39,0,0,0,0,1,0,0,0,0,0
52353,12807,58.82,4,0,1,0,3,1,11.51,8.34,5.99,0.00,0.00,0.00,0.00,nan,1.36,1.59,2.23,-1834.73,-1231.23,0,0,0,0,1,0,0,0,0,0
52358,12812,45.45,4,0,1,0,3,1,11.51,8.34,5.99,0.00,0.00,0.00,0.00,nan,1.36,1.59,2.23,-1836.01,-1232.67,0,0,0,0,1,0,0,0,0,0
52375,12829,25.64,4,0,1,0,3,1,11.51,8.34,5.99,0.00,0.00,0.00,0.00,nan,1.36,1.59,2.23,-1836.55,-1233.56,0,0,0,0,1,0,0,0,0,0
52381,12835,22.22,4,0,1,0,3,1,11.51,8.34,5.99,0.00,0.00,0.00,0.00,nan,1.36,1.58,2.23,-1838.67,-1232.33,0,0,0,0,1,0,0,0,0,0
52570,13024,inf,4,0,1,0,3,1,11.50,8.34,5.99,0.00,0.00,0.00,0.00,nan,1.41,1.58,2.27,-1863.03,-1248.61,0,0,0,0,1,0,0,0,0,0
52587,13041,58.82,4,0,1,0,3,1,11.50,8.34,5.99,0.00,0.00,0.00,0.00,nan,1.41,1.57,2.27,-1866.71,-1250.04,0,0,0,0,1,0,0,0,0,0
52592,13046,45.45,4,0,1,0,3,1,11.50,8.34,5.99,0.00,0.00,0.00,0.00,nan,1.40,1.57,2.27,-1868.26,-1251.22,0,0,0,0,1,0,0,0,0,0
52609,13063,25.64,4,0,1,0,3,1,11.50,8.34,5.99,0.00,0.00,0.00,0.00,nan,1.40,1.57,2.27,-1869.23,-1251.79,0,0,0,0,1,0,0,0,0,0
52615,13069,22.22,4,0,1,0,3,1,11.50,8.34,5.99,0.00,0.00,0.00,0.00,nan,1.41,1.57,2.27,-1870.45,-1254.61,0,0,0,0,1,0,0,0,0,0
52804,13258,inf,4,0,1,0,3,1,11.49,8.33,5.99,0.00,0.00,0.00,0.00,nan,1.34,1.55,2.28,-1892.28,-1266.81,1,1,1,1,1,0,0,0,0,0
52821,13275,58.82,4,0,1,0,3,1,11.49,8.33,5.99,0.00,0.00,0.00,0.00,nan,1.34,1.55,2.27,-1895.21,-1269.00,1,1,1,1,1,0,0,0,0,0
52826,13280,45.45,4,0,1,0,3,1,11.49,8.33,5.99,0.00,0.00,0.00,0.00,nan,1.35,1.55,2.28,-1899.86,-1272.50,1,1,1,1,1,0,0,0,0,0
52844,13298,25.00,4,0,1,0,3,1,11.49,8.33,5.99,0.00,0.00,0.00,0.00,nan,1.35,1.55,2.28,-1899.04,-1271.40,1,1,1,1,1,0,0,0,0,0
52849,13303,22.22,4,0,1,0,3,1,11.49,8.33,5.99,0.00,0.00,0.00,0.00,nan,1.35,1.55,2.28,-1902.41,-1272.69,1,1,1,1,1,0,0,0,0,0
53038,13492,inf,4,0,1,0,3,1,11.50,8.33,5.99,0.00,0.00,0.00,0.00,nan,1.37,1.54,2.30,-1923.71,-1285.99,0,0,0,0,1,0,0,0,0,0
53055,13509,58.82,4,0,1,0,3,1,11.50,8.33,5.99,0.00,0.00,0.00,0.00,nan,1.37,1.53,2.29,-1926.26,-1288.92,0,0,0,0,1,0,0,0,0,0
53060,13514,45.45,4,0,1,0,3,1,11.50,8.33,5.99,0.00,0.00,0.00,0.00,nan,1.37,1.54,2.30,-1929.71,-1291.16,0,0,0,0,1,0,0,0,0,0
53077,13531,25.64,4,0,1,0,3,1,11.50,8.33,5.99,0.00,0.00,0.00,0.00,nan,1.37,1.54,2.30,-1929.75,-1289.57,0,0,0,0,1,0,0,0,0,0
53083,13537,22.22,4,0,1,0,3,1,11.50,8.33,5.99,0.00,0.00,0.00,0.00,nan,1.38,1.54,2.30,-1932.55,-1292.91,0,0,0,0,1,0,0,0,0,0
53272,13726,inf,4,0,1,0,3,1,11.34,8.33,5.98,0.00,0.00,0.00,0.00,nan,1.40,1.63,2.31,-1954.60,-1315.17,1,1,1,1,1,0,0,0,0,0
53289,13743,58.82,4,0,1,0,3,1,11.34,8.33,5.98,0.00,0.00,0.00,0.00,nan,1.40,1.63,2.32,-1958.65,-1314.37,1,1,1,1,1,0,0,0,0,0
53294,13748,45.45,4,0,1,0,3,1,11.34,8.33,5.98,0.00,0.00,0.00,0.00,nan,1.40,1.62,2.31,-1959.84,-1314.52,1,1,1,1,1,0,0,0,0,0
53311,13765,25.64,4,0,1,0,3,1,11.34,8.33,5.98,0.00,0.00,0.00,0.00,nan,1.40,1.62,2.31,-1960.73,-1316.11,1,1,1,1,1,0,0,0,0,0
53317,13771,22.22,4,0,1,0,3,1,11.34,8.33,5.98,0.00,0.00,0.00,0.00,nan,1.40,1.62,2.31,-1963.54,-1317.82,1,1,1,1,1,0,0,0,0,0
53506,13960,inf,4,0,1,0,3,1,11.50,8.32,5.98,0.00,0.00,0.00,0.00,nan,1.39,1.61,2.30,-1983.16,-1332.24,0,0,0,0,1,0,0,0,0,0
53523,13977,58.82,4,0,1,0,3,1,11.50,8.32,5.98,0.00,0.00,0.00,0.00,nan,1.40,1.61,2.30,-1987.86,-1334.86,0,0,0,0,1,0,0,0,0,0
53528,13982,45.45,4,0,1,0,3,1,11.50,8.32,5.98,0.00,0.00,0.00,0.00,nan,1.40,1.61,2.30,-1989.74,-1337.09,0,0,0,0,1,0,0,0,0,0
53545,13999,25.64,4,0,1,0,3,1,11.50,8.32,5.98,0.00,0.00,0.00,0.00,nan,1.40,1.61,2.30,-1992.41,-1336.67,0,0,0,0,1,0,0,0,0,0
53551,14005,22.22,4,0,1,0,3,1,11.50,8.32,5.98,0.00,0.00,0.00,0.00,nan,1.40,1.61,2.30,-1991.75,-1337.95,0,0,0,0,1,0,0,0,0,0
53740,14194,inf,4,0,1,0,3,1,11.30,8.33,5.98,0.00,0.00,0.00,0.00,nan,1.40,1.57,2.34,-2016.86,-1349.69,1,1,1,1,1,0,0,0,0,0
53757,14211,58.82,4,0,1,0,3,1,11.30,8.33,5.98,0.00,0.00,0.00,0.00,nan,1.40,1.57,2.34,-2020.27,-1354.55,1,1,1,1,1,0,0,0,0,0
53762,14216,45.45,4,0,1,0,3,1,11.30,8.33,5.98,0.00,0.00,0.00,0.00,nan,1.40,1.57,2.34,-2022.20,-1354.80,1,1,1,1,1,0,0,0,0,0
53780,14234,25.00,4,0,1,0,3,1,11.30,8.33,5.98,0.00,0.00,0.00,0.00,nan,1.40,1.57,2.34,-2024.04,-1355.53,1,1,1,1,1,0,0,0,0,0
53785,14239,22.22,4,0,1,0,3,1,11.30,8.33,5.98,0.00,0.00,0.00,0.00,nan,1.40,1.57,2.34,-2025.78,-1355.82,1,1,1,1,1,0,0,0,0,0
53974,14428,inf,4,0,1,0,3,1,11.51,8.33,5.98,0.00,0.00,0.00,0.00,nan,1.37,1.61,2.29,-2041.79,-1375.11,0,0,0,0,1,0,0,0,0,0
53991,14445,58.82,4,0,1,0,3,1,11.51,8.33,5.98,0.00,0.00,0.00,0.00,nan,1.38,1.60,2.29,-2046.67,-1375.37,0,0,0,0,1,0,0,0,0,0
53996,14450,45.45,4,0,1,0,3,1,11.51,8.33,5.98,0.00,0.00,0.00,0.00,nan,1.37,1.60,2.28,-2048.81,-1377.45,0,0,0,0,1,0,0,0,0,0
54013,14467,25.64,4,0,1,0,3,1,11.51,8.33,5.98,0.00,0.00,0.00,0.00,nan,1.37,1.60,2.29,-2050.45,-1378.61,0,0,0,0,1,0,0,0,0,0
54019,14473,22.22,4,0,1,0,3,1,11.51,8.33,5.98,0.00,0.00,0.00,0.00,nan,1.37,1.61,2.29,-2051.91,-1381.43,0,0,0,0,1,0,0,0,0,0
54208,14662,inf,4,0,1,0,3,1,11.51,8.33,5.98,0.00,0.00,0.00,0.00,nan,1.44,1.60,2.31,-2074.70,-1394.31,0,0,0,0,1,0,0,0,0,0
54225,14679,58.82,4,0,1,0,3,1,11.51,8.33,5.98,0.00,0.00,0.00,0.00,nan,1.45,1.60,2.32,-2081.40,-1396.11,0,0,0,0,1,0,0,0,0,0
54230,14684,45.45,4,0,1,0,3,1,11.51,8.33,5.98,0.00,0.00,0.00,0.00,nan,1.45,1.60,2.32,-2081.28,-1399.50,0,0,0,0,1,0,0,0,0,0
54248,14702,25.00,4,0,1,0,3,1,11.51,8.33,5.98,0.00,0.00,0.00,0.00,nan,1.45,1.60,2.32,-2080.72,-1398.83,0,0,0,0,1,0,0,0,0,0
54253,14707,22.22,4,0,1,0,3,1,11.51,8.33,5.98,0.00,0.00,0.00,0.00,nan,1.45,1.60,2.32,-2084.30,-1398.77,0,0,0,0,1,0,0,0,0,0
54442,14896,inf,4,0,1,0,3,1,11.51,8.33,5.98,0.00,0.00,0.00,0.00,nan,1.42,1.56,2.25,-2098.95,-1411.76,0,0,0,0,1,0,0,0,0,0
54459,14913,58.82,4,0,1,0,3,1,11.51,8.33,5.98,0.00,0.00,0.00,0.00,nan,1.42,1.55,2.25,-2104.38,-1413.58,0,0,0,0,1,0,0,0,0,0
54464,14918,45.45,4,0,1,0,3,1,11.51,8.33,5.98,0.00,0.00,0.00,0.00,nan,1.42,1.55,2.25,-2107.19,-1414.32,0,0,0,0,1,0,0,0,0,0
54482,14936,25.00,4,0,1,0,3,1,11.51,8.33,5.98,0.00,0.00,0.00,0.00,nan,1.42,1.55,2.25,-2108.45,-1416.51,0,0,0,0,1,0,0,0,0,0
54487,14941,22.22,4,0,1,0,3,1,11.51,8.33,5.98,0.00,0.00,0.00,0.00,nan,1.42,1.55,2.25,-2108.05,-1417.49,0,0,0,0,1,0,0,0,0,0
54676,15130,inf,4,0,1,0,3,1,11.51,8.33,5.98,0.00,0.00,0.00,0.00,nan,1.37,1.54,2.25,-2129.68,-1431.34,0,0,0,0,1,0,0,0,0,0
54693,15147,58.82,4,0,1,0,3,1,11.51,8.33,5.98,0.00,0.00,0.00,0.00,nan,1.38,1.54,2.25,-2134.84,-1434.83,0,0,0,0,1,0,0,0,0,0
54698,15152,45.45,4,0,1,0,3,1,11.51,8.33,5.98,0.00,0.00,0.00,0.00,nan,1.38,1.55,2.25,-2135.71,-1436.59,0,0,0,0,1,0,0,0,0,0
54716,15170,25.00,4,0,1,0,3,1,11.51,8.33,5.98,0.00,0.00,0.00,0.00,nan,1.38,1.55,2.25,-2135.40,-1436.20,0,0,0,0,1,0,0,0,0,0
54721,15175,22.22,4,0,1,0,3,1,11.51,8.33,5.98,0.00,0.00,0.00,0.00,nan,1.38,1.55,2.25,-2138.97,-1438.29,0,0,0,0,1,0,0,0,0,0
54910,15364,inf,4,0,1,0,3,1,11.51,8.33,5.98,0.00,0.00,0.00,0.00,nan,1.37,1.56,2.27,-2160.84,-1453.32,0,0,0,0,1,0,0,0,0,0
54927,15381,58.82,4,0,1,0,3,1,11.51,8.33,5.98,0.00,0.00,0.00,0.00,nan,1.37,1.55,2.27,-2165.34,-1453.79,0,0,0,0,1,0,0,0,0,0
54932,15386,45.45,4,0,1,0,3,1,11.51,8.33,5.98,0.00,0.00,0.00,0.00,nan,1.38,1.55,2.27,-2167.09,-1456.95,0,0,0,0,1,0,0,0,0,0
54950,15404,25.00,4,0,1,0,3,1,11.51,8.33,5.98,0.00,0.00,0.00,0.00,nan,1.38,1.55,2.27,-2167.56,-1455.42,0,0,0,0,1,0,0,0,0,0
54955,15409,22.22,4,0,1,0,3,1,11.51,8.33,5.98,0.00,0.00,0.00,0.00,nan,1.38,1.55,2.27,-2169.46,-1457.90,0,0,0,0,1,0,0,0,0,0
55144,15598,inf,4,0,1,0,3,1,11.51,8.33,5.98,0.00,0.00,0.00,0.00,nan,1.33,1.48,2.21,-2184.11,-1466.30,0,0,0,0,1,0,0,0,0,0
55161,15615,58.82,4,0,1,0,3,1,11.51,8.33,5.98,0.00,0.00,0.00,0.00,nan,1.33,1.49,2.21,-2190.11,-1471.52,0,0,0,0,1,0,0,0,0,0
55166,15620,45.45,4,0,1,0,3,1,11.51,8.33,5.98,0.00,0.00,0.00,0.00,nan,1.32,1.49,2.21,-2191.33,-1471.98,0,0,0,0,1,0,0,0,0,0
55183,15637,25.64,4,0,1,0,3,1,11.51,8.33,5.98,0.00,0.00,0.00,0.00,nan,1.32,1.49,2.21,-2192.10,-1471.47,0,0,0,0,1,0,0,0,0,0
55189,15643,22.22,4,0,1,0,3,1,11.51,8.33,5.98,0.00,0.00,0.00,0.00,nan,1.32,1.48,2.21,-2196.13,-1473.67,0,0,0,0,1,0,0,0,0,0
55378,15832,inf,4,0,1,0,3,1,11.51,8.33,5.98,0.00,0.00,0.00,0.00,nan,1.37,1.51,2.25,-2218.83,-1489.46,0,0,0,0,1,0,0,0,0,0
55395,15849,58.82,4,0,1,0,3,1,11.51,8.33,5.98,0.00,0.00,0.00,0.00,nan,1.36,1.49,2.26,-2222.21,-1489.27,0,0,0,0,1,0,0,0,0,0
55400,15854,45.45,4,0,1,0,3,1,11.51,8.33,5.98,0.00,0.00,0.00,0.00,nan,1.36,1.50,2.25,-2223.54,-1493.87,0,0,0,0,1,0,0,0,0,0
55417,15871,25.64,4,0,1,0,3,1,11.51,8.33,5.98,0.00,0.00,0.00,0.00,nan,1.36,1.50,2.26,-2225.26,-1493.83,0,0,0,0,1,0,0,0,0,0
55422,15876,22.73,4,0,1,0,3,1,11.51,8.33,5.98,0.00,0.00,0.00,0.00,nan,1.36,1.50,2.26,-2227.69,-1493.49,0,0,0,0,1,0,0,0,0,0
55611,16065,inf,4,0,1,0,3,1,11.51,8.33,5.98,0.00,0.00,0.00,0.00,nan,1.40,1.50,2.28,-2249.24,-1508.53,0,0,0,0,1,0,0,0,0,0
55628,16082,58.82,4,0,1,0,3,1,11.51,8.33,5.98,0.00,0.00,0.00,0.00,nan,1.39,1.50,2.28,-2252.15,-1510.17,0,0,0,0,1,0,0,0,0,0
55633,16087,45.45,4,0,1,0,3,1,11.51,8.33,5.98,0.00,0.00,0.00,0.00,nan,1.39,1.50,2.28,-2254.66,-1511.71,0,0,0,0,1,0,0,0,0,0
55650,16104,25.64,4,0,1,0,3,1,11.51,8.33,5.98,0.00,0.00,0.00,0.00,nan,1.39,1.50,2.28,-2254.58,-1510.91,0,0,0,0,1,0,0,0,0,0
55656,16110,22.22,4,0,1,0,3,1,11.51,8.33,5.98,0.00,0.00,0.00,0.00,nan,1.39,1.50,2.28,-2257.14,-1513.54,0,0,0,0,1,0,0,0,0,0
55845,16299,inf,4,0,1,0,3,1,11.51,8.33,5.98,0.00,0.00,0.00,0.00,nan,1.42,1.47,2.32,-2282.48,-1525.12,0,0,0,0,1,0,0,0,0,0
55862,16316,58.82,4,0,1,0,3,1,11.51,8.33,5.98,0.00,0.00,0.00,0.00,nan,1.41,1.46,2.32,-2284.16,-1525.63,0,0,0,0,1,0,0,0,0,0
55867,16321,45.45,4,0,1,0,3,1,11.51,8.33,5.98,0.00,0.00,0.00,0.00,nan,1.42,1.46,2.32,-2289.17,-1529.57,0,0,0,0,1,0,0,0,0,0
55884,16338,25.64,4,0,1,0,3,1,11.51,8.33,5.98,0.00,0.00,0.00,0.00,nan,1.42,1.46,2.32,-2286.68,-1529.91,0,0,0,0,1,0,0,0,0,0
55890,16344,22.22,4,0,1,0,3,1,11.51,8.33,5.98,0.00,0.00,0.00,0.00,nan,1.43,1.46,2.33,-2291.70,-1531.63,0,0,0,0,1,0,0,0,0,0
56079,16533,inf,4,0,1,0,3,1,11.51,8.33,5.98,0.00,0.00,0.00,0.00,nan,1.42,1.50,2.32,-2311.22,-1547.77,0,0,0,0,1,0,0,0,0,0
56096,16550,58.82,4,0,1,0,3,1,11.51,8.33,5.98,0.00,0.00,0.00,0.00,nan,1.43,1.50,2.33,-2317.04,-1548.47,0,0,0,0,1,0,0,0,0,0
56101,16555,45.45,4,0,1,0,3,1,11.51,8.33,5.98,0.00,0.00,0.00,0.00,nan,1.42,1.49,2.32,-2316.07,-1549.82,0,0,0,0,1,0,0,0,0,0
56118,16572,25.64,4,0,1,0,3,1,11.51,8.33,5.98,0.00,0.00,0.00,0.00,nan,1.42,1.49,2.32,-2317.60,-1550.06,0,0,0,0,1,0,0,0,0,0
56124,16578,22.22,4,0,1,0,3,1,11.51,8.33,5.98,0.00,0.00,0.00,0.00,nan,1.43,1.49,2.32,-2320.18,-1552.66,0,0,0,0,1,0,0,0,0,0
56313,16767,inf,4,0,1,0,3,1,11.52,8.33,5.98,0.00,0.00,0.00,0.00,nan,1.41,1.48,2.34,-2343.64,-1564.46,0,0,0,0,1,0,0,0,0,0
56330,16784,58.82,4,0,1,0,3,1,11.52,8.33,5.98,0.00,0.00,0.00,0.00,nan,1.40,1.49,2.33,-2344.99,-1569.23,0,0,0,0,1,0,0,0,0,0
56335,16789,45.45,4,0,1,0,3,1,11.52,8.33,5.98,0.00,0.00,0.00,0.00,nan,1.40,1.49,2.33,-2348.68,-1570.12,0,0,0,0,1,0,0,0,0,0
56352,16806,25.64,4,0,1,0,3,1,11.52,8.33,5.98,0.00,0.00,0.00,0.00,nan,1.40,1.49,2.33,-2349.54,-1569.92,0,0,0,0,1,0,0,0,0,0
56358,16812,22.22,4,0,1,0,3,1,11.52,8.33,5.98,0.00,0.00,0.00,0.00,nan,1.40,1.49,2.33,-2350.09,-1572.31,0,0,0,0,1,0,0,0,0,0
56547,17001,inf,4,0,1,0,3,1,11.51,8.33,5.98,0.00,0.00,0.00,0.00,nan,1.33,1.44,2.28,-2368.78,-1580.35,0,0,0,0,1,0,0,0,0,0
56564,17018,58.82,4,0,1,0,3,1,11.51,8.33,5.98,0.00,0.00,0.00,0.00,nan,1.33,1.43,2.29,-2374.13,-1582.74,0,0,0,0,1,0,0,0,0,0
56569,17023,45.45,4,0,1,0,3,1,11.51,8.33,5.98,0.00,0.00,0.00,0.00,nan,1.33,1.43,2.29,-2377.28,-1585.22,0,0,0,0,1,0,0,0,0,0
56586,17040,25.64,4,0,1,0,3,1,11.51,8.33,5.98,0.00,0.00,0.00,0.00,nan,1.33,1.43,2.29,-2376.54,-1584.44,0,0,0,0,1,0,0,0,0,0
56592,17046,22.22,4,0,1,0,3,1,11.51,8.33,5.98,0.00,0.00,0.00,0.00,nan,1.33,1.43,2.29,-2379.19,-1586.02,0,0,0,0,1,0,0,0,0,0
56781,17235,inf,4,0,1,0,3,1,11.51,8.33,5.98,0.00,0.00,0.00,0.00,nan,1.29,1.39,2.30,-2400.66,-1595.83,0,0,0,0,1,0,0,0,0,0
56798,17252,58.82,4,0,1,0,3,1,11.51,8.33,5.98,0.00,0.00,0.00,0.00,nan,1.29,1.39,2.30,-2404.54,-1600.42,0,0,0,0,1,0,0,0,0,0
56803,17257,45.45,4,0,1,0,3,1,11.51,8.33,5.98,0.00,0.00,0.00,0.00,nan,1.29,1.40,2.30,-2407.00,-1602.69,0,0,0,0,1,0,0,0,0,0
56820,17274,25.64,4,0,1,0,3,1,11.51,8.33,5.98,0.00,0.00,0.00,0.00,nan,1.29,1.40,2.30,-2406.65,-1601.47,0,0,0,0,1,0,0,0,0,0
56826,17280,22.22,4,0,1,0,3,1,11.51,8.33,5.98,0.00,0.00,0.00,0.00,nan,1.29,1.40,2.30,-2409.82,-1602.76,0,0,0,0,1,0,0,0,0,0
57015,17469,inf,4,0,1,0,3,1,11.51,8.33,5.98,0.00,0.00,0.00,0.00,nan,1.29,1.33,2.32,-2432.14,-1609.85,0,0,0,0,1,0,0,0,0,0
57032,17486,58.82,4,0,1,0,3,1,11.51,8.33,5.98,0.00,0.00,0.00,0.00,nan,1.30,1.34,2.32,-2437.05,-1614.18,0,0,0,0,1,0,0,0,0,0
57037,17491,45.45,4,0,1,0,3,1,11.51,8.33,5.98,0.00,0.00,0.00,0.00,nan,1.30,1.33,2.32,-2438.69,-1614.64,0,0,0,0,1,0,0,0,0,0
57054,17508,25.64,4,0,1,0,3,1,11.51,8.33,5.98,0.00,0.00,0.00,0.00,nan,1.30,1.33,2.32,-2438.27,-1614.72,0,0,0,0,1,0,0,0,0,0
57059,17513,22.73,4,0,1,0,3,1,11.51,8.33,5.98,0.00,0.00,0.00,0.00,nan,1.30,1.33,2.33,-2442.15,-1616.65,0,0,0,0,1,0,0,0,0,0
57248,17702,inf,4,0,1,0,3,1,11.51,8.33,5.98,0.00,0.00,0.00,0.00,nan,1.30,1.30,2.34,-2463.86,-1626.14,0,0,0,0,1,0,0,0,0,0
57265,17719,58.82,4,0,1,0,3,1,11.51,8.33,5.98,0.00,0.00,0.00,0.00,nan,1.30,1.30,2.34,-2467.50,-1627.69,0,0,0,0,1,0,0,0,0,0
57270,17724,45.45,4,0,1,0,3,1,11.51,8.33,5.98,0.00,0.00,0.00,0.00,nan,1.30,1.30,2.34,-2470.52,-1629.36,0,0,0,0,1,0,0,0,0,0
57287,17741,25.64,4,0,1,0,3,1,11.51,8.33,5.98,0.00,0.00,0.00,0.00,nan,1.31,1.30,2.35,-2472.80,-1631.28,0,0,0,0,1,0,0,0,0,0
57293,17747,22.22,4,0,1,0,3,1,11.51,8.33,5.98,0.00,0.00,0.00,0.00,nan,1.30,1.30,2.34,-2472.08,-1630.92,0,0,0,0,1,0,0,0,0,0
57482,17936,inf,4,0,1,0,3,1,11.51,8.33,5.98,0.00,0.00,0.00,0.00,nan,1.28,1.28,2.31,-2490.68,-1641.40,0,0,0,0,1,0,0,0,0,0
57499,17953,58.82,4,0,1,0,3,1,11.51,8.33,5.98,0.00,0.00,0.00,0.00,nan,1.28,1.28,2.30,-2495.02,-1645.53,0,0,0,0,1,0,0,0,0,0
57504,17958,45.45,4,0,1,0,3,1,11.51,8.33,5.98,0.00,0.00,0.00,0.00,nan,1.28,1.28,2.30,-2498.36,-1643.74,0,0,0,0,1,0,0,0,0,0
57521,17975,25.64,4,0,1,0,3,1,11.51,8.33,5.98,0.00,0.00,0.00,0.00,nan,1.28,1.28,2.30,-2497.87,-1644.47,0,0,0,0,1,0,0,0,0,0
57527,17981,22.22,4,0,1,0,3,1,11.51,8.33,5.98,0.00,0.00,0.00,0.00,nan,1.28,1.27,2.31,-2500.83,-1646.19,0,0,0,0,1,0,0,0,0,0
57716,18170,inf,4,0,1,0,3,1,11.52,8.33,5.98,0.00,0.00,0.00,0.00,nan,1.27,1.25,2.30,-2520.84,-1656.47,0,0,0,0,1,0,0,0,0,0
57733,18187,58.82,4,0,1,0,3,1,11.52,8.33,5.98,0.00,0.00,0.00,0.00,nan,1.27,1.24,2.29,-2524.55,-1656.76,0,0,0,0,1,0,0,0,0,0
57738,18192,45.45,4,0,1,0,3,1,11.52,8.33,5.98,0.00,0.00,0.00,0.00,nan,1.26,1.24,2.29,-2525.40,-1659.54,0,0,0,0,1,0,0,0,0,0
57755,18209,25.64,4,0,1,0,3,1,11.52,8.33,5.98,0.00,0.00,0.00,0.00,nan,1.26,1.24,2.29,-2526.26,-1660.21,0,0,0,0,1,0,0,0,0,0
57761,18215,22.22,4,0,1,0,3,1,11.52,8.33,5.98,0.00,0.00,0.00,0.00,nan,1.26,1.24,2.29,-2531.11,-1661.89,0,0,0,0,1,0,0,0,0,0
57950,18404,inf,4,0,1,0,3,1,11.51,8.33,5.98,0.00,0.00,0.00,0.00,nan,1.25,1.26,2.28,-2549.54,-1673.88,0,0,0,0,1,0,0,0,0,0
57967,18421,58.82,4,0,1,0,3,1,11.51,8.33,5.98,0.00,0.00,0.00,0.00,nan,1.25,1.25,2.28,-2554.51,-1675.36,0,0,0,0,1,0,0,0,0,0
57972,18426,45.45,4,0,1,0,3,1,11.51,8.33,5.98,0.00,0.00,0.00,0.00,nan,1.25,1.25,2.28,-2554.44,-1676.20,0,0,0,0,1,0,0,0,0,0
57989,18443,25.64,4,0,1,0,3,1,11.51,8.33,5.98,0.00,0.00,0.00,0.00,nan,1.25,1.25,2.28,-2554.20,-1675.75,0,0,0,0,1,0,0,0,0,0
57995,18449,22.22,4,0,1,0,3,1,11.51,8.33,5.98,0.00,0.00,0.00,0.00,nan,1.25,1.25,2.27,-2557.56,-1676.57,0,0,0,0,1,0,0,0,0,0
58184,18638,inf,4,0,1,0,3,1,11.51,8.33,5.98,0.00,0.00,0.00,0.00,nan,1.23,1.22,2.28,-2579.36,-1686.58,0,0,0,0,1,0,0,0,0,0
58201,18655,58.82,4,0,1,0,3,1,11.51,8.33,5.98,0.00,0.00,0.00,0.00,nan,1.23,1.20,2.27,-2583.02,-1685.98,0,0,0,0,1,0,0,0,0,0
58206,18660,45.45,4,0,1,0,3,1,11.51,8.33,5.98,0.00,0.00,0.00,0.00,nan,1.23,1.20,2.28,-2585.83,-1690.74,0,0,0,0,1,0,0,0,0,0
58223,18677,25.64,4,0,1,0,3,1,11.51,8.33,5.98,0.00,0.00,0.00,0.00,nan,1.23,1.20,2.28,-2586.13,-1690.27,0,0,0,0,1,0,0,0,0,0
58229,18683,22.22,4,0,1,0,3,1,11.51,8.33,5.98,0.00,0.00,0.00,0.00,nan,1.23,1.20,2.28,-2588.25,-1690.09,0,0,0,0,1,0,0,0,0,0
58418,18872,inf,4,0,1,0,3,1,11.51,8.33,5.98,0.00,0.00,0.00,0.00,nan,1.27,1.19,2.28,-2608.96,-1701.33,0,0,0,0,1,0,0,0,0,0
58435,18889,58.82,4,0,1,0,3,1,11.51,8.33,5.98,0.00,0.00,0.00,0.00,nan,1.28,1.19,2.28,-2613.65,-1702.28,0,0,0,0,1,0,0,0,0,0
58440,18894,45.45,4,0,1,0,3,1,11.51,8.33,5.98,0.00,0.00,0.00,0.00,nan,1.28,1.19,2.28,-2615.71,-1704.45,0,0,0,0,1,0,0,0,0,0
58457,18911,25.64,4,0,1,0,3,1,11.51,8.33,5.98,0.00,0.00,0.00,0.00,nan,1.28,1.19,2.28,-2617.45,-1703.75,0,0,0,0,1,0,0,0,0,0
58462,18916,22.73,4,0,1,0,3,1,11.51,8.33,5.98,0.00,0.00,0.00,0.00,nan,1.28,1.18,2.28,-2618.08,-1705.35,0,0,0,0,1,0,0,0,0,0
58651,19105,inf,4,0,1,0,3,1,11.51,8.33,5.98,0.00,0.00,0.00,0.00,nan,1.31,1.21,2.29,-2639.33,-1718.82,0,0,0,0,1,0,0,0,0,0
58668,19122,58.82,4,0,1,0,3,1,11.51,8.33,5.98,0.00,0.00,0.00,0.00,nan,1.31,1.22,2.29,-2644.20,-1721.04,0,0,0,0,1,0,0,0,0,0
58673,19127,45.45,4,0,1,0,3,1,11.51,8.33,5.98,0.00,0.00,0.00,0.00,nan,1.30,1.21,2.29,-2644.43,-1720.73,0,0,0,0,1,0,0,0,0,0
58690,19144,25.64,4,0,1,0,3,1,11.51,8.33,5.98,0.00,0.00,0.00,0.00,nan,1.30,1.21,2.29,-2645.93,-1720.45,0,0,0,0,1,0,0,0,0,0
58696,19150,22.22,4,0,1,0,3,1,11.51,8.33,5.98,0.00,0.00,0.00,0.00,nan,1.30,1.20,2.28,-2646.82,-1720.90,0,0,0,0,1,0,0,0,0,0
58885,19339,inf,4,0,1,0,3,1,11.51,8.33,5.98,0.00,0.00,0.00,0.00,nan,1.29,1.17,2.30,-2670.81,-1730.28,0,0,0,0,1,0,0,0,0,0
58902,19356,58.82,4,0,1,0,3,1,11.51,8.33,5.98,0.00,0.00,0.00,0.00,nan,1.30,1.17,2.30,-2673.59,-1733.51,0,0,0,0,1,0,0,0,0,0
58907,19361,45.45,4,0,1,0,3,1,11.51,8.33,5.98,0.00,0.00,0.00,0.00,nan,1.30,1.17,2.30,-2674.92,-1734.29,0,0,0,0,1,0,0,0,0,0
58924,19378,25.64,4,0,1,0,3,1,11.51,8.33,5.98,0.00,0.00,0.00,0.00,nan,1.30,1.17,2.30,-2677.60,-1734.94,0,0,0,0,1,0,0,0,0,0
58930,19384,22.22,4,0,1,0,3,1,11.51,8.33,5.98,0.00,0.00,0.00,0.00,nan,1.30,1.17,2.30,-2678.24,-1735.64,0,0,0,0,1,0,0,0,0,0
59119,19573,inf,4,0,1,0,3,1,11.52,8.33,5.98,0.00,0.00,0.00,0.00,nan,1.32,1.12,2.27,-2697.21,-1741.77,0,0,0,0,1,0,0,0,0,0
59136,19590,58.82,4,0,1,0,3,1,11.52,8.33,5.98,0.00,0.00,0.00,0.00,nan,1.32,1.13,2.27,-2703.19,-1746.45,0,0,0,0,1,0,0,0,0,0
59141,19595,45.45,4,0,1,0,3,1,11.52,8.33,5.98,0.00,0.00,0.00,0.00,nan,1.33,1.13,2.28,-2705.33,-1746.74,0,0,0,0,1,0,0,0,0,0
59158,19612,25.64,4,0,1,0,3,1,11.52,8.33,5.98,0.00,0.00,0.00,0.00,nan,1.33,1.13,2.28,-2705.47,-1746.05,0,0,0,0,1,0,0,0,0,0
59164,19618,22.22,4,0,1,0,3,1,11.52,8.33,5.98,0.00,0.00,0.00,0.00,nan,1.32,1.12,2.28,-2707.36,-1746.45,0,0,0,0,1,0,0,0,0,0
59353,19807,inf,4,0,1,0,3,1,11.51,8.33,5.98,0.00,0.00,0.00,0.00,nan,1.34,1.15,2.32,-2731.77,-1760.79,0,0,0,0,1,0,0,0,0,0
59370,19824,58.82,4,0,1,0,3,1,11.51,8.33,5.98,0.00,0.00,0.00,0.00,nan,1.33,1.16,2.32,-2736.13,-1763.00,0,0,0,0,1,0,0,0,0,0
59375,19829,45.45,4,0,1,0,3,1,11.51,8.33,5.98,0.00,0.00,0.00,0.00,nan,1.33,1.15,2.33,-2738.72,-1761.96,0,0,0,0,1,0,0,0,0,0
59392,19846,25.64,4,0,1,0,3,1,11.51,8.33,5.98,0.00,0.00,0.00,0.00,nan,1.33,1.15,2.33,-2738.40,-1762.42,0,0,0,0,1,0,0,0,0,0
59398,19852,22.22,4,0,1,0,3,1,11.51,8.33,5.98,0.00,0.00,0.00,0.00,nan,1.33,1.15,2.33,-2739.94,-1762.49,0,0,0,0,1,0,0,0,0,0
59587,20041,inf,4,0,1,0,3,1,11.51,8.33,5.98,0.00,0.00,0.00,0.00,nan,1.31,1.10,2.31,-2760.10,-1770.08,0,0,0,0,1,0,0,0,0,0
59604,20058,58.82,4,0,1,0,3,1,11.51,8.33,5.98,0.00,0.00,0.00,0.00,nan,1.30,1.09,2.31,-2763.94,-1772.17,0,0,0,0,1,0,0,0,0,0
59609,20063,45.45,4,0,1,0,3,1,11.51,8.33,5.98,0.00,0.00,0.00,0.00,nan,1.30,1.09,2.30,-2766.12,-1774.06,0,0,0,0,1,0,0,0,0,0
59626,20080,25.64,4,0,1,0,3,1,11.51,8.33,5.98,0.00,0.00,0.00,0.00,nan,1.30,1.09,2.30,-2766.08,-1772.95,0,0,0,0,1,0,0,0,0,0
59632,20086,22.22,4,0,1,0,3,1,11.51,8.33,5.98,0.00,0.00,0.00,0.00,nan,1.30,1.09,2.31,-2769.81,-1774.16,0,0,0,0,1,0,0,0,0,0
59821,20275,inf,4,0,1,0,3,1,11.52,8.33,5.98,0.00,0.00,0.00,0.00,nan,1.38,1.11,2.40,-2798.88,-1786.90,0,0,0,0,1,0,0,0,0,0
59838,20292,58.82,4,0,1,0,3,1,11.52,8.33,5.98,0.00,0.00,0.00,0.00,nan,1.38,1.10,2.39,-2800.06,-1786.85,0,0,0,0,1,0,0,0,0,0
59843,20297,45.45,4,0,1,0,3,1,11.52,8.33,5.98,0.00,0.00,0.00,0.00,nan,1.38,1.10,2.39,-2802.70,-1788.27,0,0,0,0,1,0,0,0,0,0
59860,20314,25.64,4,0,1,0,3,1,11.52,8.33,5.98,0.00,0.00,0.00,0.00,nan,1.38,1.10,2.39,-2802.51,-1787.41,0,0,0,0,1,0,0,0,0,0
59866,20320,22.22,4,0,1,0,3,1,11.52,8.33,5.98,0.00,0.00,0.00,0.00,nan,1.38,1.10,2.39,-2804.02,-1789.64,0,0,0,0,1,0,0,0,0,0
60054,20508,inf,4,0,1,0,3,1,11.51,8.33,5.98,0.00,0.00,0.00,0.00,nan,1.36,1.13,2.40,-2827.92,-1803.03,0,0,0,0,1,0,0,0,0,0
60071,20525,58.82,4,0,1,0,3,1,11.51,8.33,5.98,0.00,0.00,0.00,0.00,nan,1.36,1.13,2.39,-2830.48,-1804.17,0,0,0,0,1,0,0,0,0,0
60076,20530,45.45,4,0,1,0,3,1,11.51,8.33,5.98,0.00,0.00,0.00,0.00,nan,1.36,1.14,2.39,-2834.41,-1806.93,0,0,0,0,1,0,0,0,0,0
60093,20547,25.64,4,0,1,0,3,1,11.51,8.33,5.98,0.00,0.00,0.00,0.00,nan,1.36,1.14,2.39,-2834.73,-1806.17,0,0,0,0,1,0,0,0,0,0
60098,20552,22.73,4,0,1,0,3,1,11.51,8.33,5.98,0.00,0.00,0.00,0.00,nan,1.36,1.14,2.40,-2838.01,-1807.92,0,0,0,0,1,0,0,0,0,0
60287,20741,inf,4,0,1,0,3,1,11.51,8.33,5.98,0.00,0.00,0.00,0.00,nan,1.40,1.12,2.38,-2857.47,-1815.81,0,0,0,0,1,0,0,0,0,0
60304,20758,58.82,4,0,1,0,3,1,11.51,8.33,5.98,0.00,0.00,0.00,0.00,nan,1.40,1.11,2.40,-2865.38,-1816.23,0,0,0,0,1,0,0,0,0,0
60309,20763,45.45,4,0,1,0,3,1,11.51,8.33,5.98,0.00,0.00,0.00,0.00,nan,1.41,1.12,2.40,-2865.48,-1820.15,0,0,0,0,1,0,0,0,0,0
60326,20780,25.64,4,0,1,0,3,1,11.51,8.33,5.98,0.00,0.00,0.00,0.00,nan,1.41,1.12,2.40,-2865.30,-1819.52,0,0,0,0,1,0,0,0,0,0
60332,20786,22.22,4,0,1,0,3,1,11.51,8.33,5.98,0.00,0.00,0.00,0.00,nan,1.40,1.12,2.40,-2866.96,-1820.77,0,0,0,0,1,0,0,0,0,0
60521,20975,inf,4,0,1,0,3,1,11.51,8.33,5.98,0.00,0.00,0.00,0.00,nan,1.39,1.12,2.36,-2886.27,-1830.78,0,0,0,0,1,0,0,0,0,0
60538,20992,58.82,4,0,1,0,3,1,11.51,8.33,5.98,0.00,0.00,0.00,0.00,nan,1.38,1.11,2.36,-2891.24,-1831.37,0,0,0,0,1,0,0,0,0,0
60543,20997,45.45,4,0,1,0,3,1,11.51,8.33,5.98,0.00,0.00,0.00,0.00,nan,1.38,1.11,2.36,-2893.36,-1832.58,0,0,0,0,1,0,0,0,0,0
60560,21014,25.64,4,0,1,0,3,1,11.51,8.33,5.98,0.00,0.00,0.00,0.00,nan,1.38,1.11,2.36,-2893.29,-1833.11,0,0,0,0,1,0,0,0,0,0
60566,21020,22.22,4,0,1,0,3,1,11.51,8.33,5.98,0.00,0.00,0.00,0.00,nan,1.37,1.11,2.36,-2896.07,-1834.01,0,0,0,0,1,0,0,0,0,0
60755,21209,inf,4,0,1,0,3,1,11.52,8.33,5.98,0.00,0.00,0.00,0.00,nan,1.38,1.14,2.39,-2921.43,-1847.22,0,0,0,0,1,0,0,0,0,0
60772,21226,58.82,4,0,1,0,3,1,11.52,8.33,5.98,0.00,0.00,0.00,0.00,nan,1.38,1.14,2.40,-2925.73,-1848.44,0,0,0,0,1,0,0,0,0,0
60777,21231,45.45,4,0,1,0,3,1,11.52,8.33,5.98,0.00,0.00,0.00,0.00,nan,1.38,1.14,2.40,-2927.61,-1849.83,0,0,0,0,1,0,0,0,0,0
60794,21248,25.64,4,0,1,0,3,1,11.52,8.33,5.98,0.00,0.00,0.00,0.00,nan,1.38,1.14,2.40,-2927.32,-1850.77,0,0,0,0,1,0,0,0,0,0
60800,21254,22.22,4,0,1,0,3,1,11.52,8.33,5.98,0.00,0.00,0.00,0.00,nan,1.38,1.13,2.40,-2929.74,-1849.33,0,0,0,0,1,0,0,0,0,0
60989,21443,inf,4,0,1,0,3,1,11.52,8.33,5.98,0.00,0.00,0.00,0.00,nan,1.34,1.10,2.36,-2948.47,-1858.10,0,0,0,0,1,0,0,0,0,0
61006,21460,58.82,4,0,1,0,3,1,11.52,8.33,5.98,0.00,0.00,0.00,0.00,nan,1.34,1.10,2.36,-2953.59,-1860.86,0,0,0,0,1,0,0,0,0,0
61011,21465,45.45,4,0,1,0,3,1,11.52,8.33,5.98,0.00,0.00,0.00,0.00,nan,1.35,1.10,2.37,-2957.70,-1861.33,0,0,0,0,1,0,0,0,0,0
61028,21482,25.64,4,0,1,0,3,1,11.52,8.33,5.98,0.00,0.00,0.00,0.00,nan,1.35,1.10,2.37,-2956.93,-1861.49,0,0,0,0,1,0,0,0,0,0
61034,21488,22.22,4,0,1,0,3,1,11.52,8.33,5.98,0.00,0.00,0.00,0.00,nan,1.34,1.10,2.36,-2957.80,-1862.62,0,0,0,0,1,0,0,0,0,0
61223,21677,inf,4,0,1,0,3,1,11.51,8.33,5.98,0.00,0.00,0.00,0.00,nan,1.35,1.08,2.39,-2982.41,-1871.76,0,0,0,0,1,0,0,0,0,0
61240,21694,58.82,4,0,1,0,3,1,11.51,8.33,5.98,0.00,0.00,0.00,0.00,nan,1.35,1.08,2.38,-2985.42,-1872.58,0,0,0,0,1,0,0,0,0,0
61245,21699,45.45,4,0,1,0,3,1,11.51,8.33,5.98,0.00,0.00,0.00,0.00,nan,1.35,1.07,2.38,-2987.51,-1874.14,0,0,0,0,1,0,0,0,0,0
61262,21716,25.64,4,0,1,0,3,1,11.51,8.33,5.98,0.00,0.00,0.00,0.00,nan,1.35,1.07,2.38,-2989.76,-1874.20,0,0,0,0,1,0,0,0,0,0
61268,21722,22.22,4,0,1,0,3,1,11.51,8.33,5.98,0.00,0.00,0.00,0.00,nan,1.35,1.07,2.38,-2990.60,-1875.64,0,0,0,0,1,0,0,0,0,0
61457,21911,inf,4,0,1,0,3,1,11.51,8.33,5.98,0.00,0.00,0.00,0.00,nan,1.33,1.07,2.36,-3010.72,-1885.19,0,0,0,0,1,0,0,0,0,0
61474,21928,58.82,4,0,1,0,3,1,11.51,8.33,5.98,0.00,0.00,0.00,0.00,nan,1.33,1.06,2.36,-3014.65,-1885.05,0,0,0,0,1,0,0,0,0,0
61479,21933,45.45,4,0,1,0,3,1,11.51,8.33,5.98,0.00,0.00,0.00,0.00,nan,1.33,1.05,2.35,-3016.01,-1885.19,0,0,0,0,1,0,0,0,0,0
61496,21950,25.64,4,0,1,0,3,1,11.51,8.33,5.98,0.00,0.00,0.00,0.00,nan,1.34,1.05,2.35,-3017.78,-1886.50,0,0,0,0,1,0,0,0,0,0
61501,21955,22.73,4,0,1,0,3,1,11.51,8.33,5.98,0.00,0.00,0.00,0.00,nan,1.34,1.04,2.35,-3019.60,-1886.12,0,0,0,0,1,0,0,0,0,0
61690,22144,inf,4,0,1,0,3,1,11.51,8.33,5.98,0.00,0.00,0.00,0.00,nan,1.33,1.06,2.36,-3041.92,-1899.16,0,0,0,0,1,0,0,0,0,0
61707,22161,58.82,4,0,1,0,3,1,11.51,8.33,5.98,0.00,0.00,0.00,0.00,nan,1.33,1.06,2.35,-3044.58,-1900.63,0,0,0,0,1,0,0,0,0,0
61712,22166,45.45,4,0,1,0,3,1,11.51,8.33,5.98,0.00,0.00,0.00,0.00,nan,1.33,1.07,2.35,-3048.44,-1902.36,0,0,0,0,1,0,0,0,0,0
61729,22183,25.64,4,0,1,0,3,1,11.51,8.33,5.98,0.00,0.00,0.00,0.00,nan,1.33,1.07,2.35,-3046.78,-1901.87,0,0,0,0,1,0,0,0,0,0
61735,22189,22.22,4,0,1,0,3,1,11.51,8.33,5.98,0.00,0.00,0.00,0.00,nan,1.33,1.07,2.35,-3050.74,-1902.80,0,0,0,0,1,0,0,0,0,0
61924,22378,inf,4,0,1,0,3,1,11.51,8.33,5.98,0.00,0.00,0.00,0.00,nan,1.34,1.05,2.30,-3066.86,-1911.49,0,0,0,0,1,0,0,0,0,0
61941,22395,58.82,4,0,1,0,3,1,11.51,8.33,5.98,0.00,0.00,0.00,0.00,nan,1.34,1.05,2.29,-3071.48,-1913.47,0,0,0,0,1,0,0,0,0,0
61946,22400,45.45,4,0,1,0,3,1,11.51,8.33,5.98,0.00,0.00,0.00,0.00,nan,1.34,1.05,2.30,-3076.30,-1914.15,0,0,0,0,1,0,0,0,0,0
61963,22417,25.64,4,0,1,0,3,1,11.51,8.33,5.98,0.00,0.00,0.00,0.00,nan,1.34,1.05,2.30,-3073.91,-1914.91,0,0,0,0,1,0,0,0,0,0
61969,22423,22.22,4,0,1,0,3,1,11.51,8.33,5.98,0.00,0.00,0.00,0.00,nan,1.34,1.05,2.30,-3076.97,-1915.27,0,0,0,0,1,0,0,0,0,0
62158,22612,inf,4,0,1,0,3,1,11.52,8.33,5.98,0.00,0.00,0.00,0.00,nan,1.30,0.99,2.30,-3098.36,-1919.87,0,0,0,0,1,0,0,0,0,0
62175,22629,58.82,4,0,1,0,3,1,11.52,8.33,5.98,0.00,0.00,0.00,0.00,nan,1.30,0.99,2.30,-3102.52,-1922.82,0,0,0,0,1,0,0,0,0,0
62180,22634,45.45,4,0,1,0,3,1,11.52,8.33,5.98,0.00,0.00,0.00,0.00,nan,1.31,0.98,2.30,-3105.53,-1922.73,0,0,0,0,1,0,0,0,0,0
62197,22651,25.64,4,0,1,0,3,1,11.52,8.33,5.98,0.00,0.00,0.00,0.00,nan,1.31,0.98,2.30,-3104.92,-1922.73,0,0,0,0,1,0,0,0,0,0
62203,22657,22.22,4,0,1,0,3,1,11.52,8.33,5.98,0.00,0.00,0.00,0.00,nan,1.31,0.99,2.30,-3107.56,-1925.50,0,0,0,0,1,0,0,0,0,0
62392,22846,inf,4,0,1,0,3,1,11.51,8.33,5.98,0.00,0.00,0.00,0.00,nan,1.31,0.93,2.30,-3128.92,-1928.48,0,0,0,0,1,0,0,0,0,0
62409,22863,58.82,4,0,1,0,3,1,11.51,8.33,5.98,0.00,0.00,0.00,0.00,nan,1.31,0.92,2.31,-3133.88,-1930.26,0,0,0,0,1,0,0,0,0,0
62414,22868,45.45,4,0,1,0,3,1,11.51,8.33,5.98,0.00,0.00,0.00,0.00,nan,1.31,0.92,2.31,-3135.51,-1931.27,0,0,0,0,1,0,0,0,0,0
62431,22885,25.64,4,0,1,0,3,1,11.51,8.33,5.98,0.00,0.00,0.00,0.00,nan,1.31,0.91,2.31,-3135.61,-1930.77,0,0,0,0,1,0,0,0,0,0
62437,22891,22.22,4,0,1,0,3,1,11.51,8.33,5.98,0.00,0.00,0.00,0.00,nan,1.31,0.91,2.31,-3136.78,-1931.00,0,0,0,0,1,0,0,0,0,0
62626,23080,inf,4,0,1,0,3,1,11.51,8.33,5.98,0.00,0.00,0.00,0.00,nan,1.31,0.89,2.34,-3161.61,-1938.82,0,0,0,0,1,0,0,0,0,0
62643,23097,58.82,4,0,1,0,3,1,11.51,8.33,5.98,0.00,0.00,0.00,0.00,nan,1.32,0.88,2.33,-3164.21,-1940.06,0,0,0,0,1,0,0,0,0,0
62648,23102,45.45,4,0,1,0,3,1,11.51,8.33,5.98,0.00,0.00,0.00,0.00,nan,1.32,0.88,2.33,-3166.63,-1940.79,0,0,0,0,1,0,0,0,0,0
62665,23119,25.64,4,0,1,0,3,1,11.51,8.33,5.98,0.00,0.00,0.00,0.00,nan,1.32,0.88,2.33,-3168.35,-1942.30,0,0,0,0,1,0,0,0,0,0
62671,23125,22.22,4,0,1,0,3,1,11.51,8.33,5.98,0.00,0.00,0.00,0.00,nan,1.31,0.88,2.32,-3167.21,-1941.13,0,0,0,0,1,0,0,0,0,0
62860,23314,inf,4,0,1,0,3,1,11.51,8.33,5.98,0.00,0.00,0.00,0.00,nan,1.32,0.92,2.32,-3190.55,-1954.22,0,0,0,0,1,0,0,0,0,0
62877,23331,58.82,4,0,1,0,3,1,11.51,8.33,5.98,0.00,0.00,0.00,0.00,nan,1.32,0.92,2.33,-3195.98,-1954.08,0,0,0,0,1,0,0,0,0,0
62882,23336,45.45,4,0,1,0,3,1,11.51,8.33,5.98,0.00,0.00,0.00,0.00,nan,1.32,0.92,2.33,-3197.82,-1955.82,0,0,0,0,1,0,0,0,0,0
62899,23353,25.64,4,0,1,0,3,1,11.51,8.33,5.98,0.00,0.00,0.00,0.00,nan,1.32,0.92,2.33,-3198.87,-1957.08,0,0,0,0,1,0,0,0,0,0
62904,23358,22.73,4,0,1,0,3,1,11.51,8.33,5.98,0.00,0.00,0.00,0.00,nan,1.32,0.91,2.34,-3200.70,-1955.11,0,0,0,0,1,0,0,0,0,0
63093,23547,inf,4,0,1,0,3,1,11.51,8.33,5.98,0.00,0.00,0.00,0.00,nan,1.32,0.94,2.33,-3221.35,-1966.74,0,0,0,0,1,0,0,0,0,0
63110,23564,58.82,4,0,1,0,3,1,11.51,8.33,5.98,0.00,0.00,0.00,0.00,nan,1.32,0.93,2.34,-3226.62,-1966.87,0,0,0,0,1,0,0,0,0,0
63115,23569,45.45,4,0,1,0,3,1,11.51,8.33,5.98,0.00,0.00,0.00,0.00,nan,1.32,0.93,2.34,-3227.07,-1968.08,0,0,0,0,1,0,0,0,0,0
63132,23586,25.64,4,0,1,0,3,1,11.51,8.33,5.98,0.00,0.00,0.00,0.00,nan,1.32,0.93,2.34,-3228.02,-1968.58,0,0,0,0,1,0,0,0,0,0
63138,23592,22.22,4,0,1,0,3,1,11.51,8.33,5.98,0.00,0.00,0.00,0.00,nan,1.32,0.93,2.34,-3230.43,-1968.46,0,0,0,0,1,0,0,0,0,0
63327,23781,inf,4,0,1,0,3,1,11.52,8.33,5.98,0.00,0.00,0.00,0.00,nan,1.35,0.98,2.33,-3251.71,-1982.40,0,0,0,0,1,0,0,0,0,0
63344,23798,58.82,4,0,1,0,3,1,11.52,8.33,5.98,0.00,0.00,0.00,0.00,nan,1.37,0.97,2.33,-3255.28,-1981.97,0,0,0,0,1,0,0,0,0,0
63349,23803,45.45,4,0,1,0,3,1,11.52,8.33,5.98,0.00,0.00,0.00,0.00,nan,1.37,0.97,2.33,-3258.41,-1983.70,0,0,0,0,1,0,0,0,0,0
63366,23820,25.64,4,0,1,0,3,1,11.52,8.33,5.98,0.00,0.00,0.00,0.00,nan,1.37,0.97,2.33,-3260.22,-1982.91,0,0,0,0,1,0,0,0,0,0
63372,23826,22.22,4,0,1,0,3,1,11.52,8.33,5.98,0.00,0.00,0.00,0.00,nan,1.36,0.97,2.33,-3260.20,-1984.66,0,0,0,0,1,0,0,0,0,0
63561,24015,inf,4,0,1,0,3,1,11.52,8.33,5.98,0.00,0.00,0.00,0.00,nan,1.29,0.99,2.26,-3275.45,-1995.10,0,0,0,0,1,0,0,0,0,0
63578,24032,58.82,4,0,1,0,3,1,11.52,8.33,5.98,0.00,0.00,0.00,0.00,nan,1.29,1.00,2.25,-3279.69,-1997.44,0,0,0,0,1,0,0,0,0,0
63583,24037,45.45,4,0,1,0,3,1,11.52,8.33,5.98,0.00,0.00,0.00,0.00,nan,1.30,1.00,2.25,-3284.17,-1997.68,0,0,0,0,1,0,0,0,0,0
63600,24054,25.64,4,0,1,0,3,1,11.52,8.33,5.98,0.00,0.00,0.00,0.00,nan,1.30,1.00,2.26,-3284.57,-1997.45,0,0,0,0,1,0,0,0,0,0
63606,24060,22.22,4,0,1,0,3,1,11.52,8.33,5.98,0.00,0.00,0.00,0.00,nan,1.30,0.99,2.26,-3286.58,-1998.38,0,0,0,0,1,0,0,0,0,0
63795,24249,inf,4,0,1,0,3,1,11.51,8.33,5.98,0.00,0.00,0.00,0.00,nan,1.29,0.95,2.24,-3305.23,-2003.89,0,0,0,0,1,0,0,0,0,0
63812,24266,58.82,4,0,1,0,3,1,11.51,8.33,5.98,0.00,0.00,0.00,0.00,nan,1.29,0.96,2.25,-3310.67,-2008.11,0,0,0,0,1,0,0,0,0,0
63817,24271,45.45,4,0,1,0,3,1,11.51,8.33,5.98,0.00,0.00,0.00,0.00,nan,1.29,0.96,2.25,-3312.37,-2008.53,0,0,0,0,1,0,0,0,0,0
63834,24288,25.64,4,0,1,0,3,1,11.51,8.33,5.98,0.00,0.00,0.00,0.00,nan,1.29,0.96,2.25,-3312.40,-2007.60,0,0,0,0,1,0,0,0,0,0
63840,24294,22.22,4,0,1,0,3,1,11.51,8.33,5.98,0.00,0.00,0.00,0.00,nan,1.29,0.95,2.25,-3315.89,-2006.91,0,0,0,0,1,0,0,0,0,0
64029,24483,inf,4,0,1,0,3,1,11.51,8.33,5.98,0.00,0.00,0.00,0.00,nan,1.31,0.96,2.25,-3335.69,-2017.81,0,0,0,0,1,0,0,0,0,0
64046,24500,58.82,4,0,1,0,3,1,11.51,8.33,5.98,0.00,0.00,0.00,0.00,nan,1.29,0.95,2.25,-3339.17,-2017.77,0,0,0,0,1,0,0,0,0,0
64051,24505,45.45,4,0,1,0,3,1,11.51,8.33,5.98,0.00,0.00,0.00,0.00,nan,1.29,0.95,2.25,-3340.99,-2020.11,0,0,0,0,1,0,0,0,0,0
64068,24522,25.64,4,0,1,0,3,1,11.51,8.33,5.98,0.00,0.00,0.00,0.00,nan,1.29,0.95,2.25,-3342.20,-2019.54,0,0,0,0,1,0,0,0,0,0
64074,24528,22.22,4,0,1,0,3,1,11.51,8.33,5.98,0.00,0.00,0.00,0.00,nan,1.30,0.95,2.25,-3343.92,-2022.02,0,0,0,0,1,0,0,0,0,0
64263,24717,inf,4,0,1,0,3,1,11.51,8.33,5.98,0.00,0.00,0.00,0.00,nan,1.29,0.96,2.22,-3362.29,-2030.90,0,0,0,0,1,0,0,0,0,0
64280,24734,58.82,4,0,1,0,3,1,11.51,8.33,5.98,0.00,0.00,0.00,0.00,nan,1.28,0.95,2.22,-3366.71,-2029.05,0,0,0,0,1,0,0,0,0,0
64285,24739,45.45,4,0,1,0,3,1,11.51,8.33,5.98,0.00,0.00,0.00,0.00,nan,1.28,0.94,2.22,-3368.63,-2031.09,0,0,0,0,1,0,0,0,0,0
64302,24756,25.64,4,0,1,0,3,1,11.51,8.33,5.98,0.00,0.00,0.00,0.00,nan,1.28,0.94,2.22,-3368.51,-2030.59,0,0,0,0,1,0,0,0,0,0
64308,24762,22.22,4,0,1,0,3,1,11.51,8.33,5.98,0.00,0.00,0.00,0.00,nan,1.28,0.94,2.22,-3371.03,-2032.47,0,0,0,0,1,0,0,0,0,0
64497,24951,inf,4,0,1,0,3,1,11.52,8.33,5.98,0.00,0.00,0.00,0.00,nan,1.27,0.91,2.22,-3391.47,-2038.83,0,0,0,0,1,0,0,0,0,0
64514,24968,58.82,4,0,1,0,3,1,11.52,8.33,5.98,0.00,0.00,0.00,0.00,nan,1.28,0.90,2.21,-3395.13,-2040.24,0,0,0,0,1,0,0,0,0,0
64519,24973,45.45,4,0,1,0,3,1,11.52,8.33,5.98,0.00,0.00,0.00,0.00,nan,1.28,0.90,2.22,-3398.98,-2041.52,0,0,0,0,1,0,0,0,0,0
64536,24990,25.64,4,0,1,0,3,1,11.52,8.33,5.98,0.00,0.00,0.00,0.00,nan,1.28,0.90,2.22,-3397.72,-2041.23,0,0,0,0,1,0,0,0,0,0
64541,24995,22.73,4,0,1,0,3,1,11.52,8.33,5.98,0.00,0.00,0.00,0.00,nan,1.28,0.90,2.22,-3400.79,-2042.79,0,0,0,0,1,0,0,0,0,0
64730,25184,inf,4,0,1,0,3,1,11.51,8.33,5.98,0.00,0.00,0.00,0.00,nan,1.23,0.95,2.20,-3418.82,-2055.14,0,0,0,0,1,0,0,0,0,0
64747,25201,58.82,4,0,1,0,3,1,11.51,8.33,5.98,0.00,0.00,0.00,0.00,nan,1.23,0.95,2.20,-3422.05,-2056.04,0,0,0,0,1,0,0,0,0,0
64752,25206,45.45,4,0,1,0,3,1,11.51,8.33,5.98,0.00,0.00,0.00,0.00,nan,1.23,0.95,2.20,-3425.17,-2057.55,0,0,0,0,1,0,0,0,0,0
64769,25223,25.64,4,0,1,0,3,1,11.51,8.33,5.98,0.00,0.00,0.00,0.00,nan,1.23,0.95,2.20,-3426.00,-2056.66,0,0,0,0,1,0,0,0,0,0
64775,25229,22.22,4,0,1,0,3,1,11.51,8.33,5.98,0.00,0.00,0.00,0.00,nan,1.23,0.95,2.20,-3427.52,-2057.67,0,0,0,0,1,0,0,0,0,0
64964,25418,inf,4,0,1,0,3,1,11.52,8.33,5.98,0.00,0.00,0.00,0.00,nan,1.26,0.94,2.26,-3453.49,-2065.59,0,0,0,0,1,0,0,0,0,0
64981,25435,58.82,4,0,1,0,3,1,11.52,8.33,5.98,0.00,0.00,0.00,0.00,nan,1.26,0.94,2.25,-3454.43,-2067.41,0,0,0,0,1,0,0,0,0,0
64986,25440,45.45,4,0,1,0,3,1,11.52,8.33,5.98,0.00,0.00,0.00,0.00,nan,1.26,0.94,2.25,-3457.79,-2068.19,0,0,0,0,1,0,0,0,0,0
65003,25457,25.64,4,0,1,0,3,1,11.52,8.33,5.98,0.00,0.00,0.00,0.00,nan,1.26,0.94,2.25,-3459.14,-2068.28,0,0,0,0,1,0,0,0,0,0
65009,25463,22.22,4,0,1,0,3,1,11.52,8.33,5.98,0.00,0.00,0.00,0.00,nan,1.27,0.94,2.26,-3461.51,-2069.76,0,0,0,0,1,0,0,0,0,0
65198,25652,inf,4,0,1,0,3,1,11.51,8.33,5.98,0.00,0.00,0.00,0.00,nan,1.28,0.93,2.25,-3480.37,-2077.15,0,0,0,0,1,0,0,0,0,0
65215,25669,58.82,4,0,1,0,3,1,11.51,8.33,5.98,0.00,0.00,0.00,0.00,nan,1.28,0.92,2.26,-3486.76,-2077.03,0,0,0,0,1,0,0,0,0,0
65220,25674,45.45,4,0,1,0,3,1,11.51,8.33,5.98,0.00,0.00,0.00,0.00,nan,1.28,0.92,2.26,-3486.98,-2079.40,0,0,0,0,1,0,0,0,0,0
65237,25691,25.64,4,0,1,0,3,1,11.51,8.33,5.98,0.00,0.00,0.00,0.00,nan,1.27,0.92,2.26,-3486.39,-2078.23,0,0,0,0,1,0,0,0,0,0
65243,25697,22.22,4,0,1,0,3,1,11.51,8.33,5.98,0.00,0.00,0.00,0.00,nan,1.27,0.92,2.26,-3490.40,-2080.47,0,0,0,0,1,0,0,0,0,0
65432,25886,inf,4,0,1,0,3,1,11.51,8.33,5.98,0.00,0.00,0.00,0.00,nan,1.28,0.92,2.31,-3514.92,-2088.87,0,0,0,0,1,0,0,0,0,0
65449,25903,58.82,4,0,1,0,3,1,11.51,8.33,5.98,0.00,0.00,0.00,0.00,nan,1.29,0.92,2.30,-3517.20,-2090.91,0,0,0,0,1,0,0,0,0,0
65454,25908,45.45,4,0,1,0,3,1,11.51,8.33,5.98,0.00,0.00,0.00,0.00,nan,1.29,0.92,2.30,-3518.20,-2091.62,0,0,0,0,1,0,0,0,0,0
65471,25925,25.64,4,0,1,0,3,1,11.51,8.33,5.98,0.00,0.00,0.00,0.00,nan,1.29,0.92,2.30,-3519.69,-2091.36,0,0,0,0,1,0,0,0,0,0
65477,25931,22.22,4,0,1,0,3,1,11.51,8.33,5.98,0.00,0.00,0.00,0.00,nan,1.28,0.92,2.30,-3522.69,-2092.51,0,0,0,0,1,0,0,0,0,0
65666,26120,inf,4,0,1,0,3,1,11.52,8.33,5.98,0.00,0.00,0.00,0.00,nan,1.35,0.96,2.37,-3550.03,-2104.24,0,0,0,0,1,0,0,0,0,0
65683,26137,58.82,4,0,1,0,3,1,11.52,8.33,5.98,0.00,0.00,0.00,0.00,nan,1.35,0.94,2.37,-3551.35,-2102.38,0,0,0,0,1,0,0,0,0,0
65688,26142,45.45,4,0,1,0,3,1,11.52,8.33,5.98,0.00,0.00,0.00,0.00,nan,1.35,0.94,2.37,-3554.81,-2104.56,0,0,0,0,1,0,0,0,0,0
65705,26159,25.64,4,0,1,0,3,1,11.52,8.33,5.98,0.00,0.00,0.00,0.00,nan,1.35,0.94,2.37,-3554.95,-2104.79,0,0,0,0,1,0,0,0,0,0
65711,26165,22.22,4,0,1,0,3,1,11.52,8.33,5.98,0.00,0.00,0.00,0.00,nan,1.35,0.94,2.37,-3557.84,-2104.78,0,0,0,0,1,0,0,0,0,0
65900,26354,inf,4,0,1,0,3,1,11.52,8.33,5.98,0.00,0.00,0.00,0.00,nan,1.39,0.91,2.39,-3580.38,-2111.81,0,0,0,0,1,0,0,0,0,0
65917,26371,58.82,4,0,1,0,3,1,11.52,8.33,5.98,0.00,0.00,0.00,0.00,nan,1.39,0.90,2.39,-3584.52,-2113.20,0,0,0,0,1,0,0,0,0,0
65922,26376,45.45,4,0,1,0,3,1,11.52,8.33,5.98,0.00,0.00,0.00,0.00,nan,1.39,0.90,2.39,-3586.11,-2114.53,0,0,0,0,1,0,0,0,0,0
65939,26393,25.64,4,0,1,0,3,1,11.52,8.33,5.98,0.00,0.00,0.00,0.00,nan,1.39,0.90,2.39,-3587.49,-2115.48,0,0,0,0,1,0,0,0,0,0
65944,26398,22.73,4,0,1,0,3,1,11.52,8.33,5.98,0.00,0.00,0.00,0.00,nan,1.39,0.90,2.39,-3589.77,-2114.98,0,0,0,0,1,0,0,0,0,0
66133,26587,inf,4,0,1,0,3,1,11.52,8.33,5.98,0.00,0.00,0.00,0.00,nan,1.38,0.85,2.40,-3612.03,-2119.24,0,0,0,0,1,0,0,0,0,0
66150,26604,58.82,4,0,1,0,3,1,11.52,8.33,5.98,0.00,0.00,0.00,0.00,nan,1.38,0.86,2.40,-3616.27,-2122.89,0,0,0,0,1,0,0,0,0,0
66155,26609,45.45,4,0,1,0,3,1,11.52,8.33,5.98,0.00,0.00,0.00,0.00,nan,1.38,0.86,2.41,-3620.69,-2123.42,0,0,0,0,1,0,0,0,0,0
66172,26626,25.64,4,0,1,0,3,1,11.52,8.33,5.98,0.00,0.00,0.00,0.00,nan,1.38,0.86,2.41,-3619.23,-2122.80,0,0,0,0,1,0,0,0,0,0
66178,26632,22.22,4,0,1,0,3,1,11.52,8.33,5.98,0.00,0.00,0.00,0.00,nan,1.38,0.86,2.41,-3621.30,-2123.94,0,0,0,0,1,0,0,0,0,0
66367,26821,inf,4,0,1,0,3,1,11.52,8.33,5.98,0.00,0.00,0.00,0.00,nan,1.36,0.74,2.39,-3642.26,-2121.27,0,0,0,0,1,0,0,0,0,0
66384,26838,58.82,4,0,1,0,3,1,11.52,8.33,5.98,0.00,0.00,0.00,0.00,nan,1.37,0.73,2.39,-3647.35,-2124.46,0,0,0,0,1,0,0,0,0,0
66389,26843,45.45,4,0,1,0,3,1,11.52,8.33,5.98,0.00,0.00,0.00,0.00,nan,1.36,0.74,2.39,-3648.47,-2126.07,0,0,0,0,1,0,0,0,0,0
66406,26860,25.64,4,0,1,0,3,1,11.52,8.33,5.98,0.00,0.00,0.00,0.00,nan,1.36,0.73,2.39,-3650.07,-2125.47,0,0,0,0,1,0,0,0,0,0
66412,26866,22.22,4,0,1,0,3,1,11.52,8.33,5.98,0.00,0.00,0.00,0.00,nan,1.36,0.73,2.39,-3652.28,-2126.50,0,0,0,0,1,0,0,0,0,0
66601,27055,inf,4,0,1,0,3,1,11.51,8.33,5.98,0.00,0.00,0.00,0.00,nan,1.38,0.72,2.37,-3671.96,-2132.18,0,0,0,0,1,0,0,0,0,0
66618,27072,58.82,4,0,1,0,3,1,11.51,8.33,5.98,0.00,0.00,0.00,0.00,nan,1.39,0.72,2.37,-3676.20,-2133.93,0,0,0,0,1,0,0,0,0,0
66623,27077,45.45,4,0,1,0,3,1,11.51,8.33,5.98,0.00,0.00,0.00,0.00,nan,1.39,0.72,2.37,-3678.94,-2135.05,0,0,0,0,1,0,0,0,0,0
66640,27094,25.64,4,0,1,0,3,1,11.51,8.33,5.98,0.00,0.00,0.00,0.00,nan,1.39,0.72,2.37,-3679.83,-2133.02,0,0,0,0,1,0,0,0,0,0
66646,27100,22.22,4,0,1,0,3,1,11.51,8.33,5.98,0.00,0.00,0.00,0.00,nan,1.38,0.72,2.36,-3679.87,-2134.30,0,0,0,0,1,0,0,0,0,0
66835,27289,inf,4,0,1,0,3,1,11.51,8.33,5.98,0.00,0.00,0.00,0.00,nan,1.37,0.76,2.37,-3703.22,-2145.99,0,0,0,0,1,0,0,0,0,0
66852,27306,58.82,4,0,1,0,3,1,11.51,8.33,5.98,0.00,0.00,0.00,0.00,nan,1.36,0.76,2.36,-3706.73,-2145.08,0,0,0,0,1,0,0,0,0,0
66857,27311,45.45,4,0,1,0,3,1,11.51,8.33,5.98,0.00,0.00,0.00,0.00,nan,1.36,0.77,2.37,-3710.51,-2148.60,0,0,0,0,1,0,0,0,0,0
66874,27328,25.64,4,0,1,0,3,1,11.51,8.33,5.98,0.00,0.00,0.00,0.00,nan,1.36,0.76,2.37,-3711.15,-2146.36,0,0,0,0,1,0,0,0,0,0
66880,27334,22.22,4,0,1,0,3,1,11.51,8.33,5.98,0.00,0.00,0.00,0.00,nan,1.36,0.77,2.37,-3712.43,-2148.17,0,0,0,0,1,0,0,0,0,0
67069,27523,inf,4,0,1,0,3,1,11.52,8.33,5.98,0.00,0.00,0.00,0.00,nan,1.35,0.73,2.38,-3735.57,-2151.47,0,0,0,0,1,0,0,0,0,0
67086,27540,58.82,4,0,1,0,3,1,11.52,8.33,5.98,0.00,0.00,0.00,0.00,nan,1.35,0.72,2.39,-3740.09,-2152.40,0,0,0,0,1,0,0,0,0,0
67091,27545,45.45,4,0,1,0,3,1,11.52,8.33,5.98,0.00,0.00,0.00,0.00,nan,1.36,0.72,2.38,-3739.50,-2154.28,0,0,0,0,1,0,0,0,0,0
67108,27562,25.64,4,0,1,0,3,1,11.52,8.33,5.98,0.00,0.00,0.00,0.00,nan,1.35,0.72,2.38,-3741.97,-2154.35,0,0,0,0,1,0,0,0,0,0
67114,27568,22.22,4,0,1,0,3,1,11.52,8.33,5.98,0.00,0.00,0.00,0.00,nan,1.35,0.72,2.38,-3743.46,-2154.94,0,0,0,0,1,0,0,0,0,0
67303,27757,inf,4,0,1,0,3,1,11.51,8.33,5.98,0.00,0.00,0.00,0.00,nan,1.34,0.74,2.40,-3767.96,-2162.82,0,0,0,0,1,0,0,0,0,0
67320,27774,58.82,4,0,1,0,3,1,11.51,8.33,5.98,0.00,0.00,0.00,0.00,nan,1.35,0.73,2.41,-3772.30,-2162.66,0,0,0,0,1,0,0,0,0,0
67325,27779,45.45,4,0,1,0,3,1,11.51,8.33,5.98,0.00,0.00,0.00,0.00,nan,1.35,0.73,2.40,-3773.11,-2164.66,0,0,0,0,1,0,0,0,0,0
67342,27796,25.64,4,0,1,0,3,1,11.51,8.33,5.98,0.00,0.00,0.00,0.00,nan,1.35,0.73,2.40,-3775.20,-2163.87,0,0,0,0,1,0,0,0,0,0
67348,27802,22.22,4,0,1,0,3,1,11.51,8.33,5.98,0.00,0.00,0.00,0.00,nan,1.36,0.74,2.41,-3777.50,-2166.86,0,0,0,0,1,0,0,0,0,0
67537,27991,inf,4,0,1,0,3,1,11.51,8.33,5.98,0.00,0.00,0.00,0.00,nan,1.34,0.68,2.39,-3797.15,-2166.75,0,0,0,0,1,0,0,0,0,0
67554,28008,58.82,4,0,1,0,3,1,11.51,8.33,5.98,0.00,0.00,0.00,0.00,nan,1.33,0.67,2.38,-3800.96,-2167.29,0,0,0,0,1,0,0,0,0,0
67559,28013,45.45,4,0,1,0,3,1,11.51,8.33,5.98,0.00,0.00,0.00,0.00,nan,1.33,0.67,2.39,-3805.73,-2169.32,0,0,0,0,1,0,0,0,0,0
67576,28030,25.64,4,0,1,0,3,1,11.51,8.33,5.98,0.00,0.00,0.00,0.00,nan,1.32,0.67,2.39,-3803.82,-2168.72,0,0,0,0,1,0,0,0,0,0
67581,28035,22.73,4,0,1,0,3,1,11.51,8.33,5.98,0.00,0.00,0.00,0.00,nan,1.32,0.67,2.39,-3806.95,-2170.87,0,0,0,0,1,0,0,0,0,0
67770,28224,inf,4,0,1,0,3,1,11.51,8.33,5.98,0.00,0.00,0.00,0.00,nan,1.35,0.67,2.40,-3829.69,-2176.64,0,0,0,0,1,0,0,0,0,0
67787,28241,58.82,4,0,1,0,3,1,11.51,8.33,5.98,0.00,0.00,0.00,0.00,nan,1.34,0.67,2.40,-3834.07,-2176.65,0,0,0,0,1,0,0,0,0,0
67792,28246,45.45,4,0,1,0,3,1,11.51,8.33,5.98,0.00,0.00,0.00,0.00,nan,1.34,0.67,2.40,-3835.39,-2177.67,0,0,0,0,1,0,0,0,0,0
67809,28263,25.64,4,0,1,0,3,1,11.51,8.33,5.98,0.00,0.00,0.00,0.00,nan,1.34,0.67,2.40,-3836.66,-2178.41,0,0,0,0,1,0,0,0,0,0
67815,28269,22.22,4,0,1,0,3,1,11.51,8.33,5.98,0.00,0.00,0.00,0.00,nan,1.34,0.66,2.41,-3842.23,-2177.34,0,0,0,0,1,0,0,0,0,0
68004,28458,inf,4,0,1,0,3,1,11.51,8.33,5.98,0.00,0.00,0.00,0.00,nan,1.32,0.69,2.42,-3862.12,-2187.17,0,0,0,0,1,0,0,0,0,0
68021,28475,58.82,4,0,1,0,3,1,11.51,8.33,5.98,0.00,0.00,0.00,0.00,nan,1.32,0.69,2.42,-3866.25,-2186.72,0,0,0,0,1,0,0,0,0,0
68026,28480,45.45,4,0,1,0,3,1,11.51,8.33,5.98,0.00,0.00,0.00,0.00,nan,1.32,0.68,2.41,-3867.16,-2187.12,0,0,0,0,1,0,0,0,0,0
68043,28497,25.64,4,0,1,0,3,1,11.51,8.33,5.98,0.00,0.00,0.00,0.00,nan,1.32,0.68,2.41,-3868.78,-2187.40,0,0,0,0,1,0,0,0,0,0
68049,28503,22.22,4,0,1,0,3,1,11.51,8.33,5.98,0.00,0.00,0.00,0.00,nan,1.33,0.68,2.42,-3872.26,-2189.51,0,0,0,0,1,0,0,0,0,0
68238,28692,inf,4,0,1,0,3,1,11.52,8.33,5.98,0.00,0.00,0.00,0.00,nan,1.38,0.62,2.45,-3896.36,-2188.94,0,0,0,0,1,0,0,0,0,0
68255,28709,58.82,4,0,1,0,3,1,11.52,8.33,5.98,0.00,0.00,0.00,0.00,nan,1.38,0.61,2.46,-3901.63,-2190.98,0,0,0,0,1,0,0,0,0,0
68260,28714,45.45,4,0,1,0,3,1,11.52,8.33,5.98,0.00,0.00,0.00,0.00,nan,1.38,0.61,2.46,-3903.35,-2191.68,0,0,0,0,1,0,0,0,0,0
68277,28731,25.64,4,0,1,0,3,1,11.52,8.33,5.98,0.00,0.00,0.00,0.00,nan,1.38,0.61,2.46,-3902.95,-2190.05,0,0,0,0,1,0,0,0,0,0
68283,28737,22.22,4,0,1,0,3,1,11.52,8.33,5.98,0.00,0.00,0.00,0.00,nan,1.39,0.61,2.45,-3904.25,-2191.75,0,0,0,0,1,0,0,0,0,0
68472,28926,inf,4,0,1,0,3,1,11.52,8.33,5.98,0.00,0.00,0.00,0.00,nan,1.35,0.62,2.42,-3924.42,-2199.21,0,0,0,0,1,0,0,0,0,0
68489,28943,58.82,4,0,1,0,3,1,11.52,8.33,5.98,0.00,0.00,0.00,0.00,nan,1.35,0.62,2.41,-3928.71,-2199.49,0,0,0,0,1,0,0,0,0,0
68494,28948,45.45,4,0,1,0,3,1,11.52,8.33,5.98,0.00,0.00,0.00,0.00,nan,1.35,0.62,2.42,-3933.43,-2201.70,0,0,0,0,1,0,0,0,0,0
68511,28965,25.64,4,0,1,0,3,1,11.52,8.33,5.98,0.00,0.00,0.00,0.00,nan,1.35,0.62,2.42,-3932.97,-2200.25,0,0,0,0,1,0,0,0,0,0
68517,28971,22.22,4,0,1,0,3,1,11.52,8.33,5.98,0.00,0.00,0.00,0.00,nan,1.36,0.62,2.42,-3936.07,-2201.55,0,0,0,0,1,0,0,0,0,0
68706,29160,inf,4,0,1,0,3,1,11.51,8.33,5.98,0.00,0.00,0.00,0.00,nan,1.34,0.59,2.37,-3952.63,-2203.90,0,0,0,0,1,0,0,0,0,0
68723,29177,58.82,4,0,1,0,3,1,11.51,8.33,5.98,0.00,0.00,0.00,0.00,nan,1.34,0.59,2.37,-3958.41,-2206.41,0,0,0,0,1,0,0,0,0,0
68728,29182,45.45,4,0,1,0,3,1,11.51,8.33,5.98,0.00,0.00,0.00,0.00,nan,1.34,0.59,2.37,-3960.13,-2205.94,0,0,0,0,1,0,0,0,0,0
68745,29199,25.64,4,0,1,0,3,1,11.51,8.33,5.98,0.00,0.00,0.00,0.00,nan,1.34,0.59,2.37,-3961.29,-2206.82,0,0,0,0,1,0,0,0,0,0
68751,29205,22.22,4,0,1,0,3,1,11.51,8.33,5.98,0.00,0.00,0.00,0.00,nan,1.34,0.59,2.37,-3963.46,-2207.39,0,0,0,0,1,0,0,0,0,0
68940,29394,inf,4,0,1,0,3,1,11.51,8.33,5.98,0.00,0.00,0.00,0.00,nan,1.33,0.55,2.38,-3985.42,-2208.87,0,0,0,0,1,0,0,0,0,0
68957,29411,58.82,4,0,1,0,3,1,11.51,8.33,5.98,0.00,0.00,0.00,0.00,nan,1.33,0.55,2.38,-3989.16,-2211.21,0,0,0,0,1,0,0,0,0,0
68962,29416,45.45,4,0,1,0,3,1,11.51,8.33,5.98,0.00,0.00,0.00,0.00,nan,1.34,0.55,2.37,-3990.92,-2211.07,0,0,0,0,1,0,0,0,0,0
68979,29433,25.64,4,0,1,0,3,1,11.51,8.33,5.98,0.00,0.00,0.00,0.00,nan,1.34,0.55,2.37,-3992.17,-2211.98,0,0,0,0,1,0,0,0,0,0
68984,29438,22.73,4,0,1,0,3,1,11.51,8.33,5.98,0.00,0.00,0.00,0.00,nan,1.34,0.55,2.37,-3993.61,-2211.34,0,0,0,0,1,0,0,0,0,0
69173,29627,inf,4,0,1,0,3,1,11.51,8.33,5.98,0.00,0.00,0.00,0.00,nan,1.31,0.55,2.39,-4016.96,-2216.72,0,0,0,0,1,0,0,0,0,0
69190,29644,58.82,4,0,1,0,3,1,11.51,8.33,5.98,0.00,0.00,0.00,0.00,nan,1.32,0.55,2.38,-4020.10,-2217.93,0,0,0,0,1,0,0,0,0,0
69195,29649,45.45,4,0,1,0,3,1,11.51,8.33,5.98,0.00,0.00,0.00,0.00,nan,1.32,0.55,2.38,-4023.12,-2218.51,0,0,0,0,1,0,0,0,0,0
69212,29666,25.64,4,0,1,0,3,1,11.51,8.33,5.98,0.00,0.00,0.00,0.00,nan,1.32,0.55,2.38,-4024.21,-2218.17,0,0,0,0,1,0,0,0,0,0
69218,29672,22.22,4,0,1,0,3,1,11.51,8.33,5.98,0.00,0.00,0.00,0.00,nan,1.32,0.55,2.38,-4026.10,-2219.58,0,0,0,0,1,0,0,0,0,0
69407,29861,inf,4,0,1,0,3,1,11.51,8.33,5.98,0.00,0.00,0.00,0.00,nan,1.33,0.56,2.42,-4050.80,-2224.71,0,0,0,0,1,0,0,0,0,0
69424,29878,58.82,4,0,1,0,3,1,11.51,8.33,5.98,0.00,0.00,0.00,0.00,nan,1.33,0.56,2.41,-4052.55,-2227.26,0,0,0,0,1,0,0,0,0,0
69429,29883,45.45,4,0,1,0,3,1,11.51,8.33,5.98,0.00,0.00,0.00,0.00,nan,1.34,0.57,2.41,-4056.82,-2227.08,0,0,0,0,1,0,0,0,0,0
69446,29900,25.64,4,0,1,0,3,1,11.51,8.33,5.98,0.00,0.00,0.00,0.00,nan,1.34,0.57,2.41,-4056.29,-2227.16,0,0,0,0,1,0,0,0,0,0
69452,29906,22.22,4,0,1,0,3,1,11.51,8.33,5.98,0.00,0.00,0.00,0.00,nan,1.34,0.57,2.41,-4058.62,-2227.38,0,0,0,0,1,0,0,0,0,0
69641,30095,inf,4,0,1,0,3,1,11.51,8.33,5.98,0.00,0.00,0.00,0.00,nan,1.31,0.59,2.43,-4082.53,-2234.94,0,0,0,0,1,0,0,0,0,0
69658,30112,58.82,4,0,1,0,3,1,11.51,8.33,5.98,0.00,0.00,0.00,0.00,nan,1.31,0.59,2.43,-4085.90,-2234.35,0,0,0,0,1,0,0,0,0,0
69663,30117,45.45,4,0,1,0,3,1,11.51,8.33,5.98,0.00,0.00,0.00,0.00,nan,1.31,0.59,2.42,-4088.09,-2235.01,0,0,0,0,1,0,0,0,0,0
69680,30134,25.64,4,0,1,0,3,1,11.51,8.33,5.98,0.00,0.00,0.00,0.00,nan,1.31,0.59,2.42,-4088.08,-2235.11,0,0,0,0,1,0,0,0,0,0
69686,30140,22.22,4,0,1,0,3,1,11.51,8.33,5.98,0.00,0.00,0.00,0.00,nan,1.31,0.58,2.43,-4092.63,-2235.73,0,0,0,0,1,0,0,0,0,0
69875,30329,inf,4,0,1,0,3,1,11.52,8.33,5.98,0.00,0.00,0.00,0.00,nan,1.34,0.63,2.43,-4113.88,-2245.37,0,0,0,0,1,0,0,0,0,0
69892,30346,58.82,4,0,1,0,3,1,11.52,8.33,5.98,0.00,0.00,0.00,0.00,nan,1.34,0.63,2.43,-4118.72,-2245.43,0,0,0,0,1,0,0,0,0,0
69897,30351,45.45,4,0,1,0,3,1,11.52,8.33,5.98,0.00,0.00,0.00,0.00,nan,1.34,0.63,2.43,-4119.75,-2245.56,0,0,0,0,1,0,0,0,0,0
69914,30368,25.64,4,0,1,0,3,1,11.52,8.33,5.98,0.00,0.00,0.00,0.00,nan,1.34,0.63,2.43,-4121.74,-2246.58,0,0,0,0,1,0,0,0,0,0
69920,30374,22.22,4,0,1,0,3,1,11.52,8.33,5.98,0.00,0.00,0.00,0.00,nan,1.34,0.62,2.43,-4123.88,-2245.68,0,0,0,0,1,0,0,0,0,0
70109,30563,inf,4,0,1,0,3,1,11.51,8.33,5.98,0.00,0.00,0.00,0.00,nan,1.32,0.57,2.42,-4145.02,-2247.61,0,0,0,0,1,0,0,0,0,0
70126,30580,58.82,4,0,1,0,3,1,11.51,8.33,5.98,0.00,0.00,0.00,0.00,nan,1.32,0.57,2.42,-4148.54,-2248.63,0,0,0,0,1,0,0,0,0,0
70131,30585,45.45,4,0,1,0,3,1,11.51,8.33,5.98,0.00,0.00,0.00,0.00,nan,1.32,0.57,2.42,-4151.30,-2250.10,0,0,0,0,1,0,0,0,0,0
70148,30602,25.64,4,0,1,0,3,1,11.51,8.33,5.98,0.00,0.00,0.00,0.00,nan,1.32,0.57,2.42,-4151.54,-2249.64,0,0,0,0,1,0,0,0,0,0
70154,30608,22.22,4,0,1,0,3,1,11.51,8.33,5.98,0.00,0.00,0.00,0.00,nan,1.32,0.57,2.42,-4154.00,-2250.81,0,0,0,0,1,0,0,0,0,0
70343,30797,inf,4,0,1,0,3,1,11.51,8.33,5.98,0.00,0.00,0.00,0.00,nan,1.28,0.56,2.43,-4177.23,-2255.23,0,0,0,0,1,0,0,0,0,0
70360,30814,58.82,4,0,1,0,3,1,11.51,8.33,5.98,0.00,0.00,0.00,0.00,nan,1.28,0.56,2.43,-4181.73,-2255.82,0,0,0,0,1,0,0,0,0,0
70365,30819,45.45,4,0,1,0,3,1,11.51,8.33,5.98,0.00,0.00,0.00,0.00,nan,1.27,0.55,2.42,-4181.82,-2256.13,0,0,0,0,1,0,0,0,0,0
70382,30836,25.64,4,0,1,0,3,1,11.51,8.33,5.98,0.00,0.00,0.00,0.00,nan,1.27,0.55,2.42,-4183.92,-2256.87,0,0,0,0,1,0,0,0,0,0
70387,30841,22.73,4,0,1,0,3,1,11.51,8.33,5.98,0.00,0.00,0.00,0.00,nan,1.27,0.55,2.42,-4185.23,-2255.51,0,0,0,0,1,0,0,0,0,0
70576,31030,inf,4,0,1,0,3,1,11.51,8.33,5.98,0.00,0.00,0.00,0.00,nan,1.25,0.57,2.37,-4203.73,-2263.47,0,0,0,0,1,0,0,0,0,0
70593,31047,58.82,4,0,1,0,3,1,11.51,8.33,5.98,0.00,0.00,0.00,0.00,nan,1.25,0.56,2.38,-4209.87,-2263.54,0,0,0,0,1,0,0,0,0,0
70598,31052,45.45,4,0,1,0,3,1,11.51,8.33,5.98,0.00,0.00,0.00,0.00,nan,1.25,0.57,2.38,-4211.81,-2265.51,0,0,0,0,1,0,0,0,0,0
70615,31069,25.64,4,0,1,0,3,1,11.51,8.33,5.98,0.00,0.00,0.00,0.00,nan,1.25,0.56,2.38,-4211.47,-2262.41,0,0,0,0,1,0,0,0,0,0
70621,31075,22.22,4,0,1,0,3,1,11.51,8.33,5.98,0.00,0.00,0.00,0.00,nan,1.25,0.57,2.38,-4214.80,-2267.05,0,0,0,0,1,0,0,0,0,0
70810,31264,inf,4,0,1,0,3,1,11.51,8.33,5.98,0.00,0.00,0.00,0.00,nan,1.26,0.61,2.41,-4238.82,-2274.79,0,0,0,0,1,0,0,0,0,0
70827,31281,58.82,4,0,1,0,3,1,11.51,8.33,5.98,0.00,0.00,0.00,0.00,nan,1.27,0.61,2.41,-4243.35,-2274.80,0,0,0,0,1,0,0,0,0,0
70832,31286,45.45,4,0,1,0,3,1,11.51,8.33,5.98,0.00,0.00,0.00,0.00,nan,1.27,0.61,2.41,-4244.24,-2274.03,0,0,0,0,1,0,0,0,0,0
70849,31303,25.64,4,0,1,0,3,1,11.51,8.33,5.98,0.00,0.00,0.00,0.00,nan,1.27,0.61,2.41,-4245.78,-2274.45,0,0,0,0,1,0,0,0,0,0
70855,31309,22.22,4,0,1,0,3,1,11.51,8.33,5.98,0.00,0.00,0.00,0.00,nan,1.28,0.61,2.41,-4247.59,-2275.33,0,0,0,0,1,0,0,0,0,0
71044,31498,inf,4,0,1,0,3,1,11.51,8.33,5.98,0.00,0.00,0.00,0.00,nan,1.30,0.57,2.38,-4267.24,-2277.43,0,0,0,0,1,0,0,0,0,0
71061,31515,58.82,4,0,1,0,3,1,11.51,8.33,5.98,0.00,0.00,0.00,0.00,nan,1.29,0.57,2.38,-4271.38,-2280.06,0,0,0,0,1,0,0,0,0,0
71066,31520,45.45,4,0,1,0,3,1,11.51,8.33,5.98,0.00,0.00,0.00,0.00,nan,1.29,0.57,2.38,-4275.14,-2280.14,0,0,0,0,1,0,0,0,0,0
71083,31537,25.64,4,0,1,0,3,1,11.51,8.33,5.98,0.00,0.00,0.00,0.00,nan,1.30,0.57,2.38,-4275.43,-2279.24,0,0,0,0,1,0,0,0,0,0
71089,31543,22.22,4,0,1,0,3,1,11.51,8.33,5.98,0.00,0.00,0.00,0.00,nan,1.30,0.57,2.39,-4277.76,-2282.06,0,0,0,0,1,0,0,0,0,0
71278,31732,inf,4,0,1,0,3,1,11.52,8.33,5.98,0.00,0.00,0.00,0.00,nan,1.32,0.63,2.40,-4300.08,-2291.56,0,0,0,0,1,0,0,0,0,0
71295,31749,58.82,4,0,1,0,3,1,11.52,8.33,5.98,0.00,0.00,0.00,0.00,nan,1.33,0.63,2.40,-4305.41,-2291.99,0,0,0,0,1,0,0,0,0,0
71300,31754,45.45,4,0,1,0,3,1,11.52,8.33,5.98,0.00,0.00,0.00,0.00,nan,1.33,0.63,2.40,-4306.42,-2291.88,0,0,0,0,1,0,0,0,0,0
71317,31771,25.64,4,0,1,0,3,1,11.52,8.33,5.98,0.00,0.00,0.00,0.00,nan,1.33,0.63,2.40,-4307.08,-2292.39,0,0,0,0,1,0,0,0,0,0
71323,31777,22.22,4,0,1,0,3,1,11.52,8.33,5.98,0.00,0.00,0.00,0.00,nan,1.33,0.63,2.40,-4309.07,-2293.00,0,0,0,0,1,0,0,0,0,0
71512,31966,inf,4,0,1,0,3,1,11.51,8.33,5.98,0.00,0.00,0.00,0.00,nan,1.35,0.60,2.46,-4337.05,-2295.67,0,0,0,0,1,0,0,0,0,0
71529,31983,58.82,4,0,1,0,3,1,11.51,8.33,5.98,0.00,0.00,0.00,0.00,nan,1.36,0.60,2.47,-4340.42,-2297.87,0,0,0,0,1,0,0,0,0,0
71534,31988,45.45,4,0,1,0,3,1,11.51,8.33,5.98,0.00,0.00,0.00,0.00,nan,1.36,0.61,2.47,-4343.32,-2298.88,0,0,0,0,1,0,0,0,0,0
71551,32005,25.64,4,0,1,0,3,1,11.51,8.33,5.98,0.00,0.00,0.00,0.00,nan,1.36,0.61,2.47,-4342.86,-2299.27,0,0,0,0,1,0,0,0,0,0
71557,32011,22.22,4,0,1,0,3,1,11.51,8.33,5.98,0.00,0.00,0.00,0.00,nan,1.36,0.61,2.47,-4345.00,-2299.24,0,0,0,0,1,0,0,0,0,0
71746,32200,inf,4,0,1,0,3,1,11.51,8.33,5.98,0.00,0.00,0.00,0.00,nan,1.29,0.61,2.46,-4366.97,-2304.51,0,0,0,0,1,0,0,0,0,0
71763,32217,58.82,4,0,1,0,3,1,11.51,8.33,5.98,0.00,0.00,0.00,0.00,nan,1.28,0.60,2.45,-4371.25,-2304.40,0,0,0,0,1,0,0,0,0,0
71768,32222,45.45,4,0,1,0,3,1,11.51,8.33,5.98,0.00,0.00,0.00,0.00,nan,1.29,0.60,2.46,-4375.45,-2305.27,0,0,0,0,1,0,0,0,0,0
71785,32239,25.64,4,0,1,0,3,1,11.51,8.33,5.98,0.00,0.00,0.00,0.00,nan,1.29,0.60,2.46,-4373.70,-2305.12,0,0,0,0,1,0,0,0,0,0
71791,32245,22.22,4,0,1,0,3,1,11.51,8.33,5.98,0.00,0.00,0.00,0.00,nan,1.29,0.60,2.46,-4376.59,-2307.49,0,0,0,0,1,0,0,0,0,0
71980,32434,inf,4,0,1,0,3,1,11.52,8.33,5.98,0.00,0.00,0.00,0.00,nan,1.28,0.58,2.50,-4403.66,-2310.55,0,0,0,0,1,0,0,0,0,0
71997,32451,58.82,4,0,1,0,3,1,11.52,8.33,5.98,0.00,0.00,0.00,0.00,nan,1.28,0.59,2.51,-4408.63,-2312.63,0,0,0,0,1,0,0,0,0,0
72002,32456,45.45,4,0,1,0,3,1,11.52,8.33,5.98,0.00,0.00,0.00,0.00,nan,1.28,0.58,2.51,-4407.92,-2311.31,0,0,0,0,1,0,0,0,0,0
72019,32473,25.64,4,0,1,0,3,1,11.52,8.33,5.98,0.00,0.00,0.00,0.00,nan,1.28,0.58,2.51,-4409.69,-2311.89,0,0,0,0,1,0,0,0,0,0
72024,32478,22.73,4,0,1,0,3,1,11.52,8.33,5.98,0.00,0.00,0.00,0.00,nan,1.28,0.58,2.50,-4411.34,-2312.73,0,0,0,0,1,0,0,0,0,0
72213,32667,inf,4,0,1,0,3,1,11.51,8.33,5.98,0.00,0.00,0.00,0.00,nan,1.24,0.57,2.51,-4435.07,-2317.07,0,0,0,0,1,0,0,0,0,0
72230,32684,58.82,4,0,1,0,3,1,11.51,8.33,5.98,0.00,0.00,0.00,0.00,nan,1.24,0.56,2.51,-4439.63,-2317.98,0,0,0,0,1,0,0,0,0,0
72235,32689,45.45,4,0,1,0,3,1,11.51,8.33,5.98,0.00,0.00,0.00,0.00,nan,1.23,0.56,2.50,-4439.96,-2316.88,0,0,0,0,1,0,0,0,0,0
72252,32706,25.64,4,0,1,0,3,1,11.51,8.33,5.98,0.00,0.00,0.00,0.00,nan,1.23,0.56,2.50,-4442.02,-2317.94,0,0,0,0,1,0,0,0,0,0
72258,32712,22.22,4,0,1,0,3,1,11.51,8.33,5.98,0.00,0.00,0.00,0.00,nan,1.23,0.55,2.50,-4445.69,-2317.63,0,0,0,0,1,0,0,0,0,0
72447,32901,inf,4,0,1,0,3,1,11.52,8.33,5.98,0.00,0.00,0.00,0.00,nan,1.26,0.62,2.53,-4469.98,-2330.41,0,0,0,0,1,0,0,0,0,0
72464,32918,58.82,4,0,1,0,3,1,11.52,8.33,5.98,0.00,0.00,0.00,0.00,nan,1.26,0.62,2.53,-4474.11,-2329.26,0,0,0,0,1,0,0,0,0,0
72469,32923,45.45,4,0,1,0,3,1,11.52,8.33,5.98,0.00,0.00,0.00,0.00,nan,1.26,0.62,2.53,-4475.12,-2329.48,0,0,0,0,1,0,0,0,0,0
72486,32940,25.64,4,0,1,0,3,1,11.52,8.33,5.98,0.00,0.00,0.00,0.00,nan,1.26,0.62,2.53,-4475.70,-2330.80,0,0,0,0,1,0,0,0,0,0
72492,32946,22.22,4,0,1,0,3,1,11.52,8.33,5.98,0.00,0.00,0.00,0.00,nan,1.26,0.62,2.53,-4480.24,-2330.86,0,0,0,0,1,0,0,0,0,0
72681,33135,inf,4,0,1,0,3,1,11.51,8.33,5.98,0.00,0.00,0.00,0.00,nan,1.24,0.68,2.51,-4500.71,-2341.55,0,0,0,0,1,0,0,0,0,0
72698,33152,58.82,4,0,1,0,3,1,11.51,8.33,5.98,0.00,0.00,0.00,0.00,nan,1.24,0.67,2.51,-4504.59,-2340.61,0,0,0,0,1,0,0,0,0,0
72703,33157,45.45,4,0,1,0,3,1,11.51,8.33,5.98,0.00,0.00,0.00,0.00,nan,1.24,0.67,2.50,-4507.00,-2341.27,0,0,0,0,1,0,0,0,0,0
72720,33174,25.64,4,0,1,0,3,1,11.51,8.33,5.98,0.00,0.00,0.00,0.00,nan,1.24,0.67,2.50,-4508.23,-2341.99,0,0,0,0,1,0,0,0,0,0
72726,33180,22.22,4,0,1,0,3,1,11.51,8.33,5.98,0.00,0.00,0.00,0.00,nan,1.24,0.67,2.51,-4511.67,-2342.46,0,0,0,0,1,0,0,0,0,0
72915,33369,inf,4,0,1,0,3,1,11.51,8.33,5.98,0.00,0.00,0.00,0.00,nan,1.27,0.67,2.53,-4535.97,-2348.97,0,0,0,0,1,0,0,0,0,0
72932,33386,58.82,4,0,1,0,3,1,11.51,8.33,5.98,0.00,0.00,0.00,0.00,nan,1.27,0.67,2.53,-4538.20,-2349.35,0,0,0,0,1,0,0,0,0,0
72937,33391,45.45,4,0,1,0,3,1,11.51,8.33,5.98,0.00,0.00,0.00,0.00,nan,1.27,0.66,2.52,-4541.12,-2348.06,0,0,0,0,1,0,0,0,0,0
72954,33408,25.64,4,0,1,0,3,1,11.51,8.33,5.98,0.00,0.00,0.00,0.00,nan,1.27,0.66,2.52,-4542.51,-2349.19,0,0,0,0,1,0,0,0,0,0
72960,33414,22.22,4,0,1,0,3,1,11.51,8.33,5.98,0.00,0.00,0.00,0.00,nan,1.27,0.66,2.52,-4544.05,-2349.97,0,0,0,0,1,0,0,0,0,0
73149,33603,inf,4,0,1,0,3,1,11.51,8.33,5.98,0.00,0.00,0.00,0.00,nan,1.29,0.69,2.55,-4570.26,-2359.52,0,0,0,0,1,0,0,0,0,0
73166,33620,58.82,4,0,1,0,3,1,11.51,8.33,5.98,0.00,0.00,0.00,0.00,nan,1.29,0.68,2.56,-4575.60,-2358.19,0,0,0,0,1,0,0,0,0,0
73171,33625,45.45,4,0,1,0,3,1,11.51,8.33,5.98,0.00,0.00,0.00,0.00,nan,1.28,0.68,2.56,-4576.23,-2359.05,0,0,0,0,1,0,0,0,0,0
73188,33642,25.64,4,0,1,0,3,1,11.51,8.33,5.98,0.00,0.00,0.00,0.00,nan,1.28,0.68,2.56,-4577.36,-2360.43,0,0,0,0,1,0,0,0,0,0
73194,33648,22.22,4,0,1,0,3,1,11.51,8.33,5.98,0.00,0.00,0.00,0.00,nan,1.29,0.68,2.56,-4580.86,-2360.16,0,0,0,0,1,0,0,0,0,0
73383,33837,inf,4,0,1,0,3,1,11.52,8.33,5.98,0.00,0.00,0.00,0.00,nan,1.31,0.67,2.57,-4604.25,-2366.59,0,0,0,0,1,0,0,0,0,0
73400,33854,58.82,4,0,1,0,3,1,11.52,8.33,5.98,0.00,0.00,0.00,0.00,nan,1.31,0.68,2.58,-4609.63,-2367.89,0,0,0,0,1,0,0,0,0,0
73405,33859,45.45,4,0,1,0,3,1,11.52,8.33,5.98,0.00,0.00,0.00,0.00,nan,1.31,0.67,2.57,-4610.90,-2367.09,0,0,0,0,1,0,0,0,0,0
73422,33876,25.64,4,0,1,0,3,1,11.52,8.33,5.98,0.00,0.00,0.00,0.00,nan,1.31,0.67,2.57,-4611.28,-2368.10,0,0,0,0,1,0,0,0,0,0
73427,33881,22.73,4,0,1,0,3,1,11.52,8.33,5.98,0.00,0.00,0.00,0.00,nan,1.31,0.67,2.57,-4614.39,-2367.89,0,0,0,0,1,0,0,0,0,0
73616,34070,inf,4,0,1,0,3,1,11.51,8.33,5.98,0.00,0.00,0.00,0.00,nan,1.36,0.61,2.60,-4640.05,-2370.08,0,0,0,0,1,0,0,0,0,0
73633,34087,58.82,4,0,1,0,3,1,11.51,8.33,5.98,0.00,0.00,0.00,0.00,nan,1.35,0.61,2.60,-4643.34,-2371.13,0,0,0,0,1,0,0,0,0,0
73638,34092,45.45,4,0,1,0,3,1,11.51,8.33,5.98,0.00,0.00,0.00,0.00,nan,1.35,0.61,2.60,-4647.07,-2373.52,0,0,0,0,1,0,0,0,0,0
73655,34109,25.64,4,0,1,0,3,1,11.51,8.33,5.98,0.00,0.00,0.00,0.00,nan,1.35,0.61,2.60,-4646.79,-2372.64,0,0,0,0,1,0,0,0,0,0
73661,34115,22.22,4,0,1,0,3,1,11.51,8.33,5.98,0.00,0.00,0.00,0.00,nan,1.36,0.61,2.60,-4650.77,-2374.15,0,0,0,0,1,0,0,0,0,0
73850,34304,inf,4,0,1,0,3,1,11.52,8.33,5.98,0.00,0.00,0.00,0.00,nan,1.35,0.58,2.63,-4675.60,-2376.43,0,0,0,0,1,0,0,0,0,0
73867,34321,58.82,4,0,1,0,3,1,11.52,8.33,5.98,0.00,0.00,0.00,0.00,nan,1.34,0.59,2.62,-4677.79,-2379.01,0,0,0,0,1,0,0,0,0,0
73872,34326,45.45,4,0,1,0,3,1,11.52,8.33,5.98,0.00,0.00,0.00,0.00,nan,1.34,0.59,2.62,-4682.65,-2379.07,0,0,0,0,1,0,0,0,0,0
73889,34343,25.64,4,0,1,0,3,1,11.52,8.33,5.98,0.00,0.00,0.00,0.00,nan,1.34,0.59,2.62,-4683.73,-2381.55,0,0,0,0,1,0,0,0,0,0
73895,34349,22.22,4,0,1,0,3,1,11.52,8.33,5.98,0.00,0.00,0.00,0.00,nan,1.35,0.59,2.63,-4686.60,-2379.72,0,0,0,0,1,0,0,0,0,0
74084,34538,inf,4,0,1,0,3,1,11.51,8.33,5.98,0.00,0.00,0.00,0.00,nan,1.37,0.62,2.60,-4707.22,-2387.81,0,0,0,0,1,0,0,0,0,0
74101,34555,58.82,4,0,1,0,3,1,11.51,8.33,5.98,0.00,0.00,0.00,0.00,nan,1.37,0.61,2.61,-4714.40,-2387.79,0,0,0,0,1,0,0,0,0,0
74106,34560,45.45,4,0,1,0,3,1,11.51,8.33,5.98,0.00,0.00,0.00,0.00,nan,1.37,0.61,2.62,-4716.52,-2388.65,0,0,0,0,1,0,0,0,0,0
74123,34577,25.64,4,0,1,0,3,1,11.51,8.33,5.98,0.00,0.00,0.00,0.00,nan,1.37,0.61,2.62,-4715.60,-2388.58,0,0,0,0,1,0,0,0,0,0
74129,34583,22.22,4,0,1,0,3,1,11.51,8.33,5.98,0.00,0.00,0.00,0.00,nan,1.37,0.62,2.62,-4720.19,-2390.01,0,0,0,0,1,0,0,0,0,0
74318,34772,inf,4,0,1,0,3,1,11.50,8.33,5.98,0.00,0.00,0.00,0.00,nan,1.29,0.60,2.61,-4741.81,-2393.94,0,0,0,0,1,0,0,0,0,0
74335,34789,58.82,4,0,1,0,3,1,11.50,8.33,5.98,0.00,0.00,0.00,0.00,nan,1.28,0.60,2.60,-4745.74,-2393.94,0,0,0,0,1,0,0,0,0,0
74340,34794,45.45,4,0,1,0,3,1,11.50,8.33,5.98,0.00,0.00,0.00,0.00,nan,1.27,0.59,2.60,-4749.22,-2395.10,0,0,0,0,1,0,0,0,0,0
74357,34811,25.64,4,0,1,0,3,1,11.50,8.33,5.98,0.00,0.00,0.00,0.00,nan,1.27,0.59,2.61,-4750.34,-2395.62,0,0,0,0,1,0,0,0,0,0
74363,34817,22.22,4,0,1,0,3,1,11.50,8.33,5.98,0.00,0.00,0.00,0.00,nan,1.27,0.59,2.61,-4752.29,-2395.35,0,0,0,0,1,0,0,0,0,0
74552,35006,inf,4,0,1,0,3,1,11.51,8.33,5.98,0.00,0.00,0.00,0.00,nan,1.26,0.64,2.65,-4779.78,-2405.35,0,0,0,0,1,0,0,0,0,0
74569,35023,58.82,4,0,1,0,3,1,11.51,8.33,5.98,0.00,0.00,0.00,0.00,nan,1.27,0.63,2.65,-4783.78,-2404.70,0,0,0,0,1,0,0,0,0,0
74574,35028,45.45,4,0,1,0,3,1,11.51,8.33,5.98,0.00,0.00,0.00,0.00,nan,1.27,0.63,2.66,-4789.06,-2406.13,0,0,0,0,1,0,0,0,0,0
74591,35045,25.64,4,0,1,0,3,1,11.51,8.33,5.98,0.00,0.00,0.00,0.00,nan,1.27,0.63,2.66,-4785.92,-2405.32,0,0,0,0,1,0,0,0,0,0
74597,35051,22.22,4,0,1,0,3,1,11.51,8.33,5.98,0.00,0.00,0.00,0.00,nan,1.27,0.63,2.66,-4788.47,-2405.64,0,0,0,0,1,0,0,0,0,0
74786,35240,inf,4,0,1,0,3,1,11.52,8.33,5.98,0.00,0.00,0.00,0.00,nan,1.24,0.54,2.66,-4814.20,-2403.84,0,0,0,0,1,0,0,0,0,0
74803,35257,58.82,4,0,1,0,3,1,11.52,8.33,5.98,0.00,0.00,0.00,0.00,nan,1.24,0.54,2.67,-4820.47,-2407.77,0,0,0,0,1,0,0,0,0,0
74808,35262,45.45,4,0,1,0,3,1,11.52,8.33,5.98,0.00,0.00,0.00,0.00,nan,1.24,0.54,2.66,-4820.42,-2406.43,0,0,0,0,1,0,0,0,0,0
74825,35279,25.64,4,0,1,0,3,1,11.52,8.33,5.98,0.00,0.00,0.00,0.00,nan,1.24,0.54,2.66,-4822.05,-2407.97,0,0,0,0,1,0,0,0,0,0
74831,35285,22.22,4,0,1,0,3,1,11.52,8.33,5.98,0.00,0.00,0.00,0.00,nan,1.23,0.54,2.66,-4822.75,-2407.34,0,0,0,0,1,0,0,0,0,0
75020,35474,inf,4,0,1,0,3,1,11.51,8.33,5.98,0.00,0.00,0.00,0.00,nan,1.23,0.58,2.67,-4850.15,-2417.16,0,0,0,0,1,0,0,0,0,0
75037,35491,58.82,4,0,1,0,3,1,11.51,8.33,5.98,0.00,0.00,0.00,0.00,nan,1.21,0.58,2.68,-4855.15,-2417.08,0,0,0,0,1,0,0,0,0,0
75042,35496,45.45,4,0,1,0,3,1,11.51,8.33,5.98,0.00,0.00,0.00,0.00,nan,1.21,0.58,2.68,-4858.50,-2416.60,0,0,0,0,1,0,0,0,0,0
75059,35513,25.64,4,0,1,0,3,1,11.51,8.33,5.98,0.00,0.00,0.00,0.00,nan,1.21,0.58,2.68,-4858.40,-2416.47,0,0,0,0,1,0,0,0,0,0
75064,35518,22.73,4,0,1,0,3,1,11.51,8.33,5.98,0.00,0.00,0.00,0.00,nan,1.22,0.58,2.68,-4860.75,-2417.35,0,0,0,0,1,0,0,0,0,0
75254,35708,inf,4,0,1,0,3,1,11.51,8.33,5.98,0.00,0.00,0.00,0.00,nan,1.20,0.52,2.65,-4882.33,-2418.20,0,0,0,0,1,0,0,0,0,0
75271,35725,58.82,4,0,1,0,3,1,11.51,8.33,5.98,0.00,0.00,0.00,0.00,nan,1.19,0.50,2.65,-4887.49,-2416.41,0,0,0,0,1,0,0,0,0,0
75276,35730,45.45,4,0,1,0,3,1,11.51,8.33,5.98,0.00,0.00,0.00,0.00,nan,1.19,0.50,2.65,-4889.88,-2418.99,0,0,0,0,1,0,0,0,0,0
75293,35747,25.64,4,0,1,0,3,1,11.51,8.33,5.98,0.00,0.00,0.00,0.00,nan,1.20,0.50,2.65,-4890.24,-2418.82,0,0,0,0,1,0,0,0,0,0
75299,35753,22.22,4,0,1,0,3,1,11.51,8.33,5.98,0.00,0.00,0.00,0.00,nan,1.19,0.49,2.65,-4893.31,-2419.10,0,0,0,0,1,0,0,0,0,0
75488,35942,inf,4,0,1,0,3,1,11.51,8.33,5.98,0.00,0.00,0.00,0.00,nan,1.20,0.50,2.66,-4918.31,-2424.95,0,0,0,0,1,0,0,0,0,0
75505,35959,58.82,4,0,1,0,3,1,11.51,8.33,5.98,0.00,0.00,0.00,0.00,nan,1.19,0.50,2.66,-4923.74,-2425.79,0,0,0,0,1,0,0,0,0,0
75510,35964,45.45,4,0,1,0,3,1,11.51,8.33,5.98,0.00,0.00,0.00,0.00,nan,1.19,0.50,2.67,-4927.31,-2424.97,0,0,0,0,1,0,0,0,0,0
75527,35981,25.64,4,0,1,0,3,1,11.51,8.33,5.98,0.00,0.00,0.00,0.00,nan,1.19,0.50,2.67,-4926.38,-2426.92,0,0,0,0,1,0,0,0,0,0
75533,35987,22.22,4,0,1,0,3,1,11.51,8.33,5.98,0.00,0.00,0.00,0.00,nan,1.19,0.49,2.67,-4928.91,-2425.13,0,0,0,0,1,0,0,0,0,0
75722,36176,inf,4,0,1,0,3,1,11.52,8.33,5.98,0.00,0.00,0.00,0.00,nan,1.12,0.46,2.68,-4954.24,-2428.07,0,0,0,0,1,0,0,0,0,0
75739,36193,58.82,4,0,1,0,3,1,11.52,8.33,5.98,0.00,0.00,0.00,0.00,nan,1.13,0.47,2.68,-4959.10,-2431.57,0,0,0,0,1,0,0,0,0,0
75744,36198,45.45,4,0,1,0,3,1,11.52,8.33,5.98,0.00,0.00,0.00,0.00,nan,1.13,0.47,2.68,-4961.76,-2431.01,0,0,0,0,1,0,0,0,0,0
75761,36215,25.64,4,0,1,0,3,1,11.52,8.33,5.98,0.00,0.00,0.00,0.00,nan,1.13,0.47,2.68,-4963.40,-2430.86,0,0,0,0,1,0,0,0,0,0
75767,36221,22.22,4,0,1,0,3,1,11.52,8.33,5.98,0.00,0.00,0.00,0.00,nan,1.13,0.47,2.68,-4965.04,-2429.82,0,0,0,0,1,0,0,0,0,0
75956,36410,inf,4,0,1,0,3,1,11.51,8.33,5.98,0.00,0.00,0.00,0.00,nan,1.13,0.52,2.70,-4991.42,-2440.27,0,0,0,0,1,0,0,0,0,0
75973,36427,58.82,4,0,1,0,3,1,11.51,8.33,5.98,0.00,0.00,0.00,0.00,nan,1.14,0.52,2.71,-4995.77,-2438.87,0,0,0,0,1,0,0,0,0,0
75978,36432,45.45,4,0,1,0,3,1,11.51,8.33,5.98,0.00,0.00,0.00,0.00,nan,1.14,0.52,2.71,-4998.71,-2440.30,0,0,0,0,1,0,0,0,0,0
75995,36449,25.64,4,0,1,0,3,1,11.51,8.33,5.98,0.00,0.00,0.00,0.00,nan,1.14,0.52,2.71,-4999.31,-2440.13,0,0,0,0,1,0,0,0,0,0
76001,36455,22.22,4,0,1,0,3,1,11.51,8.33,5.98,0.00,0.00,0.00,0.00,nan,1.14,0.52,2.71,-5001.73,-2440.98,0,0,0,0,1,0,0,0,0,0
76190,36644,inf,4,0,1,0,3,1,11.50,8.33,5.98,0.00,0.00,0.00,0.00,nan,1.16,0.53,2.71,-5026.60,-2446.86,0,0,0,0,1,0,0,0,0,0
76207,36661,58.82,4,0,1,0,3,1,11.50,8.33,5.98,0.00,0.00,0.00,0.00,nan,1.17,0.53,2.71,-5030.77,-2446.98,0,0,0,0,1,0,0,0,0,0
76212,36666,45.45,4,0,1,0,3,1,11.50,8.33,5.98,0.00,0.00,0.00,0.00,nan,1.16,0.53,2.71,-5034.14,-2448.31,0,0,0,0,1,0,0,0,0,0
76229,36683,25.64,4,0,1,0,3,1,11.50,8.33,5.98,0.00,0.00,0.00,0.00,nan,1.16,0.53,2.71,-5034.00,-2448.41,0,0,0,0,1,0,0,0,0,0
76235,36689,22.22,4,0,1,0,3,1,11.50,8.33,5.98,0.00,0.00,0.00,0.00,nan,1.16,0.54,2.71,-5038.06,-2448.86,0,0,0,0,1,0,0,0,0,0
76424,36878,inf,4,0,1,0,3,1,11.51,8.33,5.98,0.00,0.00,0.00,0.00,nan,1.16,0.51,2.72,-5062.52,-2450.77,0,0,0,0,1,0,0,0,0,0
76441,36895,58.82,4,0,1,0,3,1,11.51,8.33,5.98,0.00,0.00,0.00,0.00,nan,1.16,0.50,2.72,-5066.83,-2451.05,0,0,0,0,1,0,0,0,0,0
76446,36900,45.45,4,0,1,0,3,1,11.51,8.33,5.98,0.00,0.00,0.00,0.00,nan,1.16,0.49,2.71,-5069.15,-2451.25,0,0,0,0,1,0,0,0,0,0
76463,36917,25.64,4,0,1,0,3,1,11.51,8.33,5.98,0.00,0.00,0.00,0.00,nan,1.16,0.49,2.71,-5069.92,-2452.77,0,0,0,0,1,0,0,0,0,0
76468,36922,22.73,4,0,1,0,3,1,11.51,8.33,5.98,0.00,0.00,0.00,0.00,nan,1.15,0.49,2.72,-5073.62,-2451.83,0,0,0,0,1,0,0,0,0,0
76657,37111,inf,4,0,1,0,3,1,11.51,8.33,5.98,0.00,0.00,0.00,0.00,nan,1.13,0.51,2.74,-5099.49,-2458.50,0,0,0,0,1,0,0,0,0,0
76674,37128,58.82,4,0,1,0,3,1,11.51,8.33,5.98,0.00,0.00,0.00,0.00,nan,1.13,0.51,2.73,-5102.49,-2459.85,0,0,0,0,1,0,0,0,0,0
76679,37133,45.45,4,0,1,0,3,1,11.51,8.33,5.98,0.00,0.00,0.00,0.00,nan,1.12,0.51,2.73,-5105.04,-2458.68,0,0,0,0,1,0,0,0,0,0
76696,37150,25.64,4,0,1,0,3,1,11.51,8.33,5.98,0.00,0.00,0.00,0.00,nan,1.12,0.51,2.73,-5107.19,-2460.62,0,0,0,0,1,0,0,0,0,0
76702,37156,22.22,4,0,1,0,3,1,11.51,8.33,5.98,0.00,0.00,0.00,0.00,nan,1.12,0.51,2.73,-5108.74,-2460.61,0,0,0,0,1,0,0,0,0,0
76891,37345,inf,4,0,1,0,3,1,11.52,8.33,5.98,0.00,0.00,0.00,0.00,nan,1.07,0.44,2.68,-5129.98,-2458.91,0,0,0,0,1,0,0,0,0,0
76908,37362,58.82,4,0,1,0,3,1,11.52,8.33,5.98,0.00,0.00,0.00,0.00,nan,1.07,0.45,2.68,-5135.46,-2461.97,0,0,0,0,1,0,0,0,0,0
76913,37367,45.45,4,0,1,0,3,1,11.52,8.33,5.98,0.00,0.00,0.00,0.00,nan,1.07,0.45,2.68,-5138.64,-2461.87,0,0,0,0,1,0,0,0,0,0
76930,37384,25.64,4,0,1,0,3,1,11.52,8.33,5.98,0.00,0.00,0.00,0.00,nan,1.07,0.45,2.68,-5140.49,-2462.47,0,0,0,0,1,0,0,0,0,0
76936,37390,22.22,4,0,1,0,3,1,11.52,8.33,5.98,0.00,0.00,0.00,0.00,nan,1.07,0.45,2.68,-5139.90,-2462.38,0,0,0,0,1,0,0,0,0,0
77125,37579,inf,4,0,1,0,3,1,11.52,8.33,5.98,0.00,0.00,0.00,0.00,nan,1.08,0.46,2.69,-5166.66,-2467.86,0,0,0,0,1,0,0,0,0,0
77142,37596,58.82,4,0,1,0,3,1,11.52,8.33,5.98,0.00,0.00,0.00,0.00,nan,1.08,0.47,2.70,-5172.57,-2470.30,0,0,0,0,1,0,0,0,0,0
77147,37601,45.45,4,0,1,0,3,1,11.52,8.33,5.98,0.00,0.00,0.00,0.00,nan,1.08,0.47,2.69,-5173.63,-2468.28,0,0,0,0,1,0,0,0,0,0
77164,37618,25.64,4,0,1,0,3,1,11.52,8.33,5.98,0.00,0.00,0.00,0.00,nan,1.08,0.47,2.69,-5174.57,-2467.77,0,0,0,0,1,0,0,0,0,0
77170,37624,22.22,4,0,1,0,3,1,11.52,8.33,5.98,0.00,0.00,0.00,0.00,nan,1.08,0.47,2.70,-5178.32,-2470.86,0,0,0,0,1,0,0,0,0,0
77359,37813,inf,4,0,1,0,3,1,11.51,8.33,5.98,0.00,0.00,0.00,0.00,nan,1.05,0.46,2.69,-5201.15,-2473.25,0,0,0,0,1,0,0,0,0,0
77376,37830,58.82,4,0,1,0,3,1,11.51,8.33,5.98,0.00,0.00,0.00,0.00,nan,1.05,0.46,2.69,-5205.85,-2474.12,0,0,0,0,1,0,0,0,0,0
77381,37835,45.45,4,0,1,0,3,1,11.51,8.33,5.98,0.00,0.00,0.00,0.00,nan,1.05,0.46,2.69,-5209.17,-2474.26,0,0,0,0,1,0,0,0,0,0
77398,37852,25.64,4,0,1,0,3,1,11.51,8.33,5.98,0.00,0.00,0.00,0.00,nan,1.05,0.46,2.69,-5210.03,-2475.36,0,0,0,0,1,0,0,0,0,0
77404,37858,22.22,4,0,1,0,3,1,11.51,8.33,5.98,0.00,0.00,0.00,0.00,nan,1.06,0.46,2.69,-5211.43,-2475.52,0,0,0,0,1,0,0,0,0,0
77593,38047,inf,4,0,1,0,3,1,11.51,8.33,5.98,0.00,0.00,0.00,0.00,nan,1.08,0.48,2.68,-5236.01,-2481.04,0,0,0,0,1,0,0,0,0,0
77610,38064,58.82,4,0,1,0,3,1,11.51,8.33,5.98,0.00,0.00,0.00,0.00,nan,1.08,0.47,2.68,-5241.32,-2480.72,0,0,0,0,1,0,0,0,0,0
77615,38069,45.45,4,0,1,0,3,1,11.51,8.33,5.98,0.00,0.00,0.00,0.00,nan,1.08,0.47,2.68,-5242.10,-2481.54,0,0,0,0,1,0,0,0,0,0
77632,38086,25.64,4,0,1,0,3,1,11.51,8.33,5.98,0.00,0.00,0.00,0.00,nan,1.08,0.47,2.68,-5243.15,-2481.78,0,0,0,0,1,0,0,0,0,0
77638,38092,22.22,4,0,1,0,3,1,11.51,8.33,5.98,0.00,0.00,0.00,0.00,nan,1.07,0.48,2.68,-5246.03,-2483.44,0,0,0,0,1,0,0,0,0,0
77827,38281,inf,4,0,1,0,3,1,11.51,8.33,5.98,0.00,0.00,0.00,0.00,nan,1.06,0.48,2.65,-5268.26,-2486.87,0,0,0,0,1,0,0,0,0,0
77844,38298,58.82,4,0,1,0,3,1,11.51,8.33,5.98,0.00,0.00,0.00,0.00,nan,1.06,0.48,2.65,-5274.43,-2488.32,0,0,0,0,1,0,0,0,0,0
77849,38303,45.45,4,0,1,0,3,1,11.51,8.33,5.98,0.00,0.00,0.00,0.00,nan,1.06,0.48,2.65,-5276.28,-2487.67,0,0,0,0,1,0,0,0,0,0
77866,38320,25.64,4,0,1,0,3,1,11.51,8.33,5.98,0.00,0.00,0.00,0.00,nan,1.06,0.48,2.65,-5277.17,-2488.08,0,0,0,0,1,0,0,0,0,0
77871,38325,22.73,4,0,1,0,3,1,11.51,8.33,5.98,0.00,0.00,0.00,0.00,nan,1.06,0.48,2.66,-5279.66,-2488.95,0,0,0,0,1,0,0,0,0,0
78060,38514,inf,4,0,1,0,3,1,11.51,8.33,5.98,0.00,0.00,0.00,0.00,nan,1.05,0.51,2.70,-5307.77,-2496.08,0,0,0,0,1,0,0,0,0,0
78077,38531,58.82,4,0,1,0,3,1,11.51,8.33,5.98,0.00,0.00,0.00,0.00,nan,1.05,0.50,2.70,-5312.04,-2494.62,0,0,0,0,1,0,0,0,0,0
78082,38536,45.45,4,0,1,0,3,1,11.51,8.33,5.98,0.00,0.00,0.00,0.00,nan,1.05,0.50,2.70,-5313.04,-2495.44,0,0,0,0,1,0,0,0,0,0
78099,38553,25.64,4,0,1,0,3,1,11.51,8.33,5.98,0.00,0.00,0.00,0.00,nan,1.05,0.50,2.70,-5313.96,-2496.32,0,0,0,0,1,0,0,0,0,0
78105,38559,22.22,4,0,1,0,3,1,11.51,8.33,5.98,0.00,0.00,0.00,0.00,nan,1.05,0.49,2.70,-5316.50,-2494.64,0,0,0,0,1,0,0,0,0,0
78294,38748,inf,4,0,1,0,3,1,11.52,8.33,5.98,0.00,0.00,0.00,0.00,nan,1.07,0.46,2.72,-5343.44,-2497.95,0,0,0,0,1,0,0,0,0,0
78311,38765,58.82,4,0,1,0,3,1,11.52,8.33,5.98,0.00,0.00,0.00,0.00,nan,1.07,0.46,2.71,-5347.42,-2499.89,0,0,0,0,1,0,0,0,0,0
78316,38770,45.45,4,0,1,0,3,1,11.52,8.33,5.98,0.00,0.00,0.00,0.00,nan,1.07,0.47,2.72,-5350.70,-2500.47,0,0,0,0,1,0,0,0,0,0
78333,38787,25.64,4,0,1,0,3,1,11.52,8.33,5.98,0.00,0.00,0.00,0.00,nan,1.07,0.47,2.72,-5350.54,-2499.99,0,0,0,0,1,0,0,0,0,0
78339,38793,22.22,4,0,1,0,3,1,11.52,8.33,5.98,0.00,0.00,0.00,0.00,nan,1.07,0.46,2.72,-5353.41,-2500.11,0,0,0,0,1,0,0,0,0,0
78528,38982,inf,4,0,1,0,3,1,11.51,8.33,5.98,0.00,0.00,0.00,0.00,nan,1.11,0.40,2.71,-5377.64,-2499.08,0,0,0,0,1,0,0,0,0,0
78545,38999,58.82,4,0,1,0,3,1,11.51,8.33,5.98,0.00,0.00,0.00,0.00,nan,1.11,0.40,2.71,-5383.93,-2501.80,0,0,0,0,1,0,0,0,0,0
78550,39004,45.45,4,0,1,0,3,1,11.51,8.33,5.98,0.00,0.00,0.00,0.00,nan,1.10,0.40,2.71,-5385.65,-2501.20,0,0,0,0,1,0,0,0,0,0
78567,39021,25.64,4,0,1,0,3,1,11.51,8.33,5.98,0.00,0.00,0.00,0.00,nan,1.10,0.40,2.72,-5387.02,-2500.34,0,0,0,0,1,0,0,0,0,0
78573,39027,22.22,4,0,1,0,3,1,11.51,8.33,5.98,0.00,0.00,0.00,0.00,nan,1.10,0.40,2.72,-5388.79,-2501.22,0,0,0,0,1,0,0,0,0,0
78762,39216,inf,4,0,1,0,3,1,11.51,8.33,5.98,0.00,0.00,0.00,0.00,nan,1.13,0.41,2.70,-5412.61,-2506.68,0,0,0,0,1,0,0,0,0,0
78779,39233,58.82,4,0,1,0,3,1,11.51,8.33,5.98,0.00,0.00,0.00,0.00,nan,1.12,0.40,2.69,-5415.72,-2505.07,0,0,0,0,1,0,0,0,0,0
78784,39238,45.45,4,0,1,0,3,1,11.51,8.33,5.98,0.00,0.00,0.00,0.00,nan,1.12,0.39,2.69,-5417.47,-2504.87,0,0,0,0,1,0,0,0,0,0
78801,39255,25.64,4,0,1,0,3,1,11.51,8.33,5.98,0.00,0.00,0.00,0.00,nan,1.12,0.39,2.69,-5419.13,-2505.85,0,0,0,0,1,0,0,0,0,0
78807,39261,22.22,4,0,1,0,3,1,11.51,8.33,5.98,0.00,0.00,0.00,0.00,nan,1.12,0.39,2.69,-5424.56,-2506.33,0,0,0,0,1,0,0,0,0,0
78996,39450,inf,4,0,1,0,3,1,11.51,8.33,5.98,0.00,0.00,0.00,0.00,nan,1.15,0.44,2.78,-5454.95,-2515.18,0,0,0,0,1,0,0,0,0,0
79013,39467,58.82,4,0,1,0,3,1,11.51,8.33,5.98,0.00,0.00,0.00,0.00,nan,1.16,0.45,2.79,-5460.36,-2515.35,0,0,0,0,1,0,0,0,0,0
79018,39472,45.45,4,0,1,0,3,1,11.51,8.33,5.98,0.00,0.00,0.00,0.00,nan,1.16,0.45,2.79,-5462.72,-2516.64,0,0,0,0,1,0,0,0,0,0
79035,39489,25.64,4,0,1,0,3,1,11.51,8.33,5.98,0.00,0.00,0.00,0.00,nan,1.16,0.45,2.79,-5462.19,-2515.25,0,0,0,0,1,0,0,0,0,0
79041,39495,22.22,4,0,1,0,3,1,11.51,8.33,5.98,0.00,0.00,0.00,0.00,nan,1.16,0.45,2.79,-5462.24,-2515.36,0,0,0,0,1,0,0,0,0,0
79230,39684,inf,4,0,1,0,3,1,11.51,8.33,5.98,0.00,0.00,0.00,0.00,nan,1.18,0.41,2.80,-5491.59,-2516.67,0,0,0,0,1,0,0,0,0,0
79247,39701,58.82,4,0,1,0,3,1,11.51,8.33,5.98,0.00,0.00,0.00,0.00,nan,1.18,0.41,2.81,-5496.23,-2517.68,0,0,0,0,1,0,0,0,0,0
79252,39706,45.45,4,0,1,0,3,1,11.51,8.33,5.98,0.00,0.00,0.00,0.00,nan,1.18,0.41,2.81,-5498.64,-2517.96,0,0,0,0,1,0,0,0,0,0
79269,39723,25.64,4,0,1,0,3,1,11.51,8.33,5.98,0.00,0.00,0.00,0.00,nan,1.18,0.41,2.81,-5499.82,-2518.36,0,0,0,0,1,0,0,0,0,0
79275,39729,22.22,4,0,1,0,3,1,11.51,8.33,5.98,0.00,0.00,0.00,0.00,nan,1.17,0.40,2.80,-5500.50,-2517.55,0,0,0,0,1,0,0,0,0,0
79464,39918,inf,4,0,1,0,3,1,11.51,8.33,5.98,0.00,0.00,0.00,0.00,nan,1.19,0.40,2.79,-5526.87,-2522.49,0,0,0,0,1,0,0,0,0,0
79481,39935,58.82,4,0,1,0,3,1,11.51,8.33,5.98,0.00,0.00,0.00,0.00,nan,1.19,0.40,2.80,-5532.83,-2522.72,0,0,0,0,1,0,0,0,0,0
79486,39940,45.45,4,0,1,0,3,1,11.51,8.33,5.98,0.00,0.00,0.00,0.00,nan,1.18,0.39,2.80,-5534.11,-2521.31,0,0,0,0,1,0,0,0,0,0
79503,39957,25.64,4,0,1,0,3,1,11.51,8.33,5.98,0.00,0.00,0.00,0.00,nan,1.19,0.40,2.80,-5535.41,-2523.84,0,0,0,0,1,0,0,0,0,0
79508,39962,22.73,4,0,1,0,3,1,11.51,8.33,5.98,0.00,0.00,0.00,0.00,nan,1.19,0.39,2.79,-5536.91,-2522.59,0,0,0,0,1,0,0,0,0,0
79697,40151,inf,4,0,1,0,3,1,11.51,8.33,5.98,0.00,0.00,0.00,0.00,nan,1.18,0.38,2.76,-5560.57,-2525.64,0,0,0,0,1,0,0,0,0,0
79714,40168,58.82,4,0,1,0,3,1,11.51,8.33,5.98,0.00,0.00,0.00,0.00,nan,1.18,0.38,2.77,-5567.86,-2526.96,0,0,0,0,1,0,0,0,0,0
79719,40173,45.45,4,0,1,0,3,1,11.51,8.33,5.98,0.00,0.00,0.00,0.00,nan,1.18,0.38,2.77,-5569.03,-2525.71,0,0,0,0,1,0,0,0,0,0
79736,40190,25.64,4,0,1,0,3,1,11.51,8.33,5.98,0.00,0.00,0.00,0.00,nan,1.18,0.37,2.77,-5569.51,-2525.76,0,0,0,0,1,0,0,0,0,0
79742,40196,22.22,4,0,1,0,3,1,11.51,8.33,5.98,0.00,0.00,0.00,0.00,nan,1.18,0.37,2.77,-5572.53,-2527.07,0,0,0,0,1,0,0,0,0,0
79931,40385,inf,4,0,1,0,3,1,11.51,8.33,5.98,0.00,0.00,0.00,0.00,nan,1.19,0.39,2.82,-5602.23,-2531.64,0,0,0,0,1,0,0,0,0,0
79948,40402,58.82,4,0,1,0,3,1,11.51,8.33,5.98,0.00,0.00,0.00,0.00,nan,1.18,0.38,2.81,-5604.60,-2531.06,0,0,0,0,1,0,0,0,0,0
79953,40407,45.45,4,0,1,0,3,1,11.51,8.33,5.98,0.00,0.00,0.00,0.00,nan,1.18,0.38,2.81,-5608.25,-2532.19,0,0,0,0,1,0,0,0,0,0
79970,40424,25.64,4,0,1,0,3,1,11.51,8.33,5.98,0.00,0.00,0.00,0.00,nan,1.18,0.38,2.81,-5609.29,-2532.89,0,0,0,0,1,0,0,0,0,0
79976,40430,22.22,4,0,1,0,3,1,11.51,8.33,5.98,0.00,0.00,0.00,0.00,nan,1.18,0.38,2.81,-5612.20,-2533.48,0,0,0,0,1,0,0,0,0,0
80165,40619,inf,4,0,1,0,3,1,11.51,8.33,5.98,0.00,0.00,0.00,0.00,nan,1.24,0.42,2.85,-5641.11,-2539.18,0,0,0,0,1,0,0,0,0,0
80182,40636,58.82,4,0,1,0,3,1,11.51,8.33,5.98,0.00,0.00,0.00,0.00,nan,1.24,0.41,2.86,-5645.68,-2537.80,0,0,0,0,1,0,0,0,0,0
80187,40641,45.45,4,0,1,0,3,1,11.51,8.33,5.98,0.00,0.00,0.00,0.00,nan,1.24,0.41,2.86,-5648.52,-2539.14,0,0,0,0,1,0,0,0,0,0
80204,40658,25.64,4,0,1,0,3,1,11.51,8.33,5.98,0.00,0.00,0.00,0.00,nan,1.24,0.41,2.86,-5647.79,-2539.57,0,0,0,0,1,0,0,0,0,0
80210,40664,22.22,4,0,1,0,3,1,11.51,8.33,5.98,0.00,0.00,0.00,0.00,nan,1.25,0.41,2.85,-5649.65,-2538.83,0,0,0,0,1,0,0,0,0,0
80399,40853,inf,4,0,1,0,3,1,11.51,8.33,5.98,0.00,0.00,0.00,0.00,nan,1.32,0.41,2.82,-5674.01,-2543.37,0,0,0,0,1,0,0,0,0,0
80416,40870,58.82,4,0,1,0,3,1,11.51,8.33,5.98,0.00,0.00,0.00,0.00,nan,1.32,0.40,2.82,-5679.68,-2542.79,0,0,0,0,1,0,0,0,0,0
80421,40875,45.45,4,0,1,0,3,1,11.51,8.33,5.98,0.00,0.00,0.00,0.00,nan,1.33,0.40,2.82,-5682.30,-2542.85,0,0,0,0,1,0,0,0,0,0
80438,40892,25.64,4,0,1,0,3,1,11.51,8.33,5.98,0.00,0.00,0.00,0.00,nan,1.33,0.40,2.82,-5683.24,-2543.64,0,0,0,0,1,0,0,0,0,0
80444,40898,22.22,4,0,1,0,3,1,11.51,8.33,5.98,0.00,0.00,0.00,0.00,nan,1.32,0.40,2.82,-5686.47,-2543.44,0,0,0,0,1,0,0,0,0,0
80633,41087,inf,4,0,1,0,3,1,11.51,8.33,5.98,0.00,0.00,0.00,0.00,nan,1.31,0.33,2.83,-5713.06,-2541.63,0,0,0,0,1,0,0,0,0,0
80650,41104,58.82,4,0,1,0,3,1,11.51,8.33,5.98,0.00,0.00,0.00,0.00,nan,1.31,0.33,2.83,-5717.98,-2544.82,0,0,0,0,1,0,0,0,0,0
80655,41109,45.45,4,0,1,0,3,1,11.51,8.33,5.98,0.00,0.00,0.00,0.00,nan,1.30,0.33,2.84,-5721.23,-2543.17,0,0,0,0,1,0,0,0,0,0
80672,41126,25.64,4,0,1,0,3,1,11.51,8.33,5.98,0.00,0.00,0.00,0.00,nan,1.30,0.33,2.84,-5721.49,-2544.02,0,0,0,0,1,0,0,0,0,0
80678,41132,22.22,4,0,1,0,3,1,11.51,8.33,5.98,0.00,0.00,0.00,0.00,nan,1.30,0.33,2.84,-5724.94,-2544.29,0,0,0,0,1,0,0,0,0,0
80867,41321,inf,4,0,1,0,3,1,11.51,8.33,5.98,0.00,0.00,0.00,0.00,nan,1.34,0.32,2.87,-5752.72,-2546.40,0,0,0,0,1,0,0,0,0,0
80884,41338,58.82,4,0,1,0,3,1,11.51,8.33,5.98,0.00,0.00,0.00,0.00,nan,1.35,0.31,2.87,-5757.01,-2546.24,0,0,0,0,1,0,0,0,0,0
80889,41343,45.45,4,0,1,0,3,1,11.51,8.33,5.98,0.00,0.00,0.00,0.00,nan,1.35,0.31,2.87,-5760.93,-2546.46,0,0,0,0,1,0,0,0,0,0
80906,41360,25.64,4,0,1,0,3,1,11.51,8.33,5.98,0.00,0.00,0.00,0.00,nan,1.35,0.31,2.87,-5760.87,-2547.77,0,0,0,0,1,0,0,0,0,0
80911,41365,22.73,4,0,1,0,3,1,11.51,8.33,5.98,0.00,0.00,0.00,0.00,nan,1.35,0.30,2.87,-5763.38,-2546.21,0,0,0,0,1,0,0,0,0,0
81100,41554,inf,4,0,1,0,3,1,11.51,8.33,5.98,0.00,0.00,0.00,0.00,nan,1.36,0.32,2.87,-5789.11,-2551.71,0,0,0,0,1,0,0,0,0,0
81117,41571,58.82,4,0,1,0,3,1,11.51,8.33,5.98,0.00,0.00,0.00,0.00,nan,1.37,0.32,2.87,-5794.61,-2552.06,0,0,0,0,1,0,0,0,0,0
81122,41576,45.45,4,0,1,0,3,1,11.51,8.33,5.98,0.00,0.00,0.00,0.00,nan,1.37,0.33,2.87,-5796.55,-2552.61,0,0,0,0,1,0,0,0,0,0
81139,41593,25.64,4,0,1,0,3,1,11.51,8.33,5.98,0.00,0.00,0.00,0.00,nan,1.37,0.32,2.87,-5798.25,-2551.90,0,0,0,0,1,0,0,0,0,0
81145,41599,22.22,4,0,1,0,3,1,11.51,8.33,5.98,0.00,0.00,0.00,0.00,nan,1.37,0.33,2.87,-5800.02,-2552.73,0,0,0,0,1,0,0,0,0,0
81334,41788,inf,4,0,1,0,3,1,11.51,8.33,5.98,0.00,0.00,0.00,0.00,nan,1.38,0.34,2.90,-5829.98,-2557.27,0,0,0,0,1,0,0,0,0,0
81351,41805,58.82,4,0,1,0,3,1,11.51,8.33,5.98,0.00,0.00,0.00,0.00,nan,1.40,0.34,2.91,-5834.83,-2557.25,0,0,0,0,1,0,0,0,0,0
81356,41810,45.45,4,0,1,0,3,1,11.51,8.33,5.98,0.00,0.00,0.00,0.00,nan,1.40,0.34,2.91,-5837.28,-2558.51,0,0,0,0,1,0,0,0,0,0
81373,41827,25.64,4,0,1,0,3,1,11.51,8.33,5.98,0.00,0.00,0.00,0.00,nan,1.40,0.34,2.91,-5837.49,-2557.47,0,0,0,0,1,0,0,0,0,0
81379,41833,22.22,4,0,1,0,3,1,11.51,8.33,5.98,0.00,0.00,0.00,0.00,nan,1.40,0.35,2.91,-5842.25,-2558.96,0,0,0,0,1,0,0,0,0,0
81568,42022,inf,4,0,1,0,3,1,11.51,8.33,5.98,0.00,0.00,0.00,0.00,nan,1.42,0.33,2.93,-5869.39,-2560.15,0,0,0,0,1,0,0,0,0,0
81585,42039,58.82,4,0,1,0,3,1,11.51,8.33,5.98,0.00,0.00,0.00,0.00,nan,1.42,0.32,2.92,-5872.10,-2559.52,0,0,0,0,1,0,0,0,0,0
81590,42044,45.45,4,0,1,0,3,1,11.51,8.33,5.98,0.00,0.00,0.00,0.00,nan,1.42,0.32,2.93,-5877.37,-2560.07,0,0,0,0,1,0,0,0,0,0
81607,42061,25.64,4,0,1,0,3,1,11.51,8.33,5.98,0.00,0.00,0.00,0.00,nan,1.42,0.32,2.93,-5877.31,-2560.39,0,0,0,0,1,0,0,0,0,0
81613,42067,22.22,4,0,1,0,3,1,11.51,8.33,5.98,0.00,0.00,0.00,0.00,nan,1.42,0.32,2.93,-5879.72,-2560.72,0,0,0,0,1,0,0,0,0,0
81802,42256,inf,4,0,1,0,3,1,11.51,8.33,5.98,0.00,0.00,0.00,0.00,nan,1.35,0.28,2.94,-5907.68,-2560.28,0,0,0,0,1,0,0,0,0,0
81819,42273,58.82,4,0,1,0,3,1,11.51,8.33,5.98,0.00,0.00,0.00,0.00,nan,1.34,0.28,2.94,-5912.08,-2561.90,0,0,0,0,1,0,0,0,0,0
81824,42278,45.45,4,0,1,0,3,1,11.51,8.33,5.98,0.00,0.00,0.00,0.00,nan,1.34,0.28,2.94,-5917.02,-2562.68,0,0,0,0,1,0,0,0,0,0
81841,42295,25.64,4,0,1,0,3,1,11.51,8.33,5.98,0.00,0.00,0.00,0.00,nan,1.34,0.28,2.94,-5915.97,-2561.43,0,0,0,0,1,0,0,0,0,0
81847,42301,22.22,4,0,1,0,3,1,11.51,8.33,5.98,0.00,0.00,0.00,0.00,nan,1.34,0.28,2.94,-5918.44,-2561.35,0,0,0,0,1,0,0,0,0,0
82036,42490,inf,4,0,1,0,3,1,11.51,8.33,5.98,0.00,0.00,0.00,0.00,nan,1.40,0.25,2.94,-5946.21,-2562.21,0,0,0,0,1,0,0,0,0,0
82053,42507,58.82,4,0,1,0,3,1,11.51,8.33,5.98,0.00,0.00,0.00,0.00,nan,1.40,0.24,2.95,-5951.95,-2561.78,0,0,0,0,1,0,0,0,0,0
82058,42512,45.45,4,0,1,0,3,1,11.51,8.33,5.98,0.00,0.00,0.00,0.00,nan,1.40,0.24,2.95,-5955.05,-2562.14,0,0,0,0,1,0,0,0,0,0
82075,42529,25.64,4,0,1,0,3,1,11.51,8.33,5.98,0.00,0.00,0.00,0.00,nan,1.40,0.24,2.95,-5955.70,-2561.94,0,0,0,0,1,0,0,0,0,0
82081,42535,22.22,4,0,1,0,3,1,11.51,8.33,5.98,0.00,0.00,0.00,0.00,nan,1.39,0.23,2.95,-5956.63,-2561.67,0,0,0,0,1,0,0,0,0,0
82270,42724,inf,4,0,1,0,3,1,11.51,8.33,5.98,0.00,0.00,0.00,0.00,nan,1.42,0.22,2.97,-5986.42,-2564.04,0,0,0,0,1,0,0,0,0,0
82287,42741,58.82,4,0,1,0,3,1,11.51,8.33,5.98,0.00,0.00,0.00,0.00,nan,1.43,0.22,2.97,-5991.31,-2564.40,0,0,0,0,1,0,0,0,0,0
82292,42746,45.45,4,0,1,0,3,1,11.51,8.33,5.98,0.00,0.00,0.00,0.00,nan,1.43,0.22,2.97,-5993.75,-2566.06,0,0,0,0,1,0,0,0,0,0
82309,42763,25.64,4,0,1,0,3,1,11.51,8.33,5.98,0.00,0.00,0.00,0.00,nan,1.43,0.22,2.97,-5994.28,-2563.25,0,0,0,0,1,0,0,0,0,0
82315,42769,22.22,4,0,1,0,3,1,11.51,8.33,5.98,0.00,0.00,0.00,0.00,nan,1.43,0.22,2.97,-5998.81,-2565.59,0,0,0,0,1,0,0,0,0,0
82504,42958,inf,4,0,1,0,3,1,11.51,8.33,5.98,0.00,0.00,0.00,0.00,nan,1.44,0.15,2.93,-6021.19,-2561.06,0,0,0,0,1,0,0,0,0,0
82521,42975,58.82,4,0,1,0,3,1,11.51,8.33,5.98,0.00,0.00,0.00,0.00,nan,1.44,0.14,2.93,-6027.31,-2560.67,0,0,0,0,1,0,0,0,0,0
82526,42980,45.45,4,0,1,0,3,1,11.51,8.33,5.98,0.00,0.00,0.00,0.00,nan,1.44,0.14,2.92,-6028.74,-2561.39,0,0,0,0,1,0,0,0,0,0
82543,42997,25.64,4,0,1,0,3,1,11.51,8.33,5.98,0.00,0.00,0.00,0.00,nan,1.44,0.14,2.92,-6029.79,-2562.36,0,0,0,0,1,0,0,0,0,0
82548,43002,22.73,4,0,1,0,3,1,11.51,8.33,5.98,0.00,0.00,0.00,0.00,nan,1.44,0.14,2.92,-6032.86,-2561.72,0,0,0,0,1,0,0,0,0,0
82738,43192,inf,4,0,1,0,3,1,11.51,8.33,5.98,0.00,0.00,0.00,0.00,nan,1.44,0.10,2.95,-6062.30,-2559.84,0,0,0,0,1,0,0,0,0,0
82755,43209,58.82,4,0,1,0,3,1,11.51,8.33,5.98,0.00,0.00,0.00,0.00,nan,1.43,0.09,2.94,-6064.69,-2559.13,0,0,0,0,1,0,0,0,0,0
82760,43214,45.45,4,0,1,0,3,1,11.51,8.33,5.98,0.00,0.00,0.00,0.00,nan,1.44,0.09,2.94,-6069.48,-2562.32,0,0,0,0,1,0,0,0,0,0
82777,43231,25.64,4,0,1,0,3,1,11.51,8.33,5.98,0.00,0.00,0.00,0.00,nan,1.44,0.09,2.94,-6067.90,-2560.65,0,0,0,0,1,0,0,0,0,0
82783,43237,22.22,4,0,1,0,3,1,11.51,8.33,5.98,0.00,0.00,0.00,0.00,nan,1.43,0.09,2.94,-6071.67,-2561.81,0,0,0,0,1,0,0,0,0,0
82972,43426,inf,4,0,1,0,3,1,11.51,8.33,5.98,0.00,0.00,0.00,0.00,nan,1.41,0.09,2.96,-6101.31,-2561.82,0,0,0,0,1,0,0,0,0,0
82989,43443,58.82,4,0,1,0,3,1,11.51,8.33,5.98,0.00,0.00,0.00,0.00,nan,1.41,0.09,2.96,-6106.89,-2561.40,0,0,0,0,1,0,0,0,0,0
82994,43448,45.45,4,0,1,0,3,1,11.51,8.33,5.98,0.00,0.00,0.00,0.00,nan,1.41,0.09,2.96,-6109.17,-2562.09,0,0,0,0,1,0,0,0,0,0
83011,43465,25.64,4,0,1,0,3,1,11.51,8.33,5.98,0.00,0.00,0.00,0.00,nan,1.40,0.09,2.96,-6109.60,-2562.40,0,0,0,0,1,0,0,0,0,0
83017,43471,22.22,4,0,1,0,3,1,11.51,8.33,5.98,0.00,0.00,0.00,0.00,nan,1.41,0.09,2.96,-6110.93,-2562.56,0,0,0,0,1,0,0,0,0,0
83206,43660,inf,4,0,1,0,3,1,11.51,8.33,5.98,0.00,0.00,0.00,0.00,nan,1.39,0.09,2.96,-6139.36,-2562.54,0,0,0,0,1,0,0,0,0,0
83223,43677,58.82,4,0,1,0,3,1,11.51,8.33,5.98,0.00,0.00,0.00,0.00,nan,1.38,0.07,2.95,-6143.68,-2560.22,0,0,0,0,1,0,0,0,0,0
83228,43682,45.45,4,0,1,0,3,1,11.51,8.33,5.98,0.00,0.00,0.00,0.00,nan,1.38,0.07,2.95,-6145.78,-2561.75,0,0,0,0,1,0,0,0,0,0
83245,43699,25.64,4,0,1,0,3,1,11.51,8.33,5.98,0.00,0.00,0.00,0.00,nan,1.38,0.07,2.95,-6147.99,-2562.06,0,0,0,0,1,0,0,0,0,0
83251,43705,22.22,4,0,1,0,3,1,11.51,8.33,5.98,0.00,0.00,0.00,0.00,nan,1.38,0.07,2.95,-6150.26,-2561.41,0,0,0,0,1,0,0,0,0,0
83440,43894,inf,4,0,1,0,3,1,11.51,8.33,5.98,0.00,0.00,0.00,0.00,nan,1.39,0.03,2.92,-6174.24,-2559.24,0,0,0,0,1,0,0,0,0,0
83457,43911,58.82,4,0,1,0,3,1,11.51,8.33,5.98,0.00,0.00,0.00,0.00,nan,1.39,0.03,2.91,-6179.53,-2559.42,0,0,0,0,1,0,0,0,0,0
